Timestamp,Ax,Ay,Az,P,LPFRMSAcc,LPFPValue,Value,Type
0.0,-1.8352106,4.0485954,6.378357,1001.7485,0.016158956096604594,3.6062946,0,0
0.02,-1.2281992,4.1010284,8.167959,1001.8466,0.049546086440353417,10.386481607999999,0,0
0.04,-0.11001617,2.1896459999999998,10.724511,1001.8995,0.1016200752260014,19.94690171448,0,0
0.06,-1.9072616999999998,1.0790392,9.574048,1001.7714,0.167680688978955,31.929057114393594,0,0
0.08,-0.1005376,1.6462606,9.929122999999999,1001.81714,0.2463682720062991,46.00808672414543,0,0
0.1,1.2616541000000001,1.8416907999999999,10.033275999999999,1001.86725,0.33637342471677995,61.889410275115225,0,0
0.12,1.256843,1.1362411000000001,10.686621,1001.8751,0.4371801890994252,79.30609624776173,0,0
0.14,1.5627007,1.7749609,10.080613,1001.90027,0.5462001807114452,98.01681899870022,0,0
0.16,2.3369873,2.6853743,7.8222976,1001.89526,0.6584267319622916,117.80357600903416,0,0
0.18,3.551018,1.8988935000000002,10.241575,1001.9078400000001,0.7780928010964645,138.46992985373268,0,0
0.2,2.8053267,1.5271031000000002,9.962241,1001.8982,0.9027729382314174,159.83906188343485,0,0
0.22,3.2450297000000004,2.2182546000000003,8.896997,1001.9032599999999,1.0299067558653312,181.75225805809936,0,0
0.24,3.0298939,1.7130006999999998,7.935908299999999,1001.9008,1.1565457216067985,204.0672929490237,0,0
0.26,3.737263200000001,1.9942286,7.623434,1001.9087,1.282407199736294,226.65708684402802,0,0
0.28,3.082391,0.57379556,7.7607284,1001.91864,1.406398749819428,249.40837032101533,0,0
0.30000000000000004,3.6511457000000003,1.0790517,7.576082,1001.8837,1.5285177708343447,272.22031558812563,0,0
0.32,3.4360154,0.21153927,7.661298299999999,1001.92645,1.648376868561591,295.003892510027,0,0
0.34,4.047788,-0.07921973,7.093165400000001,1001.9241300000001,1.7653255064671485,317.680373933183,0,0
0.36000000000000004,3.3451152000000004,-0.5749406,6.051593,1001.9169,1.8767274548733737,340.1805644125242,0,0
0.38,6.8391100000000025,-0.7036366,5.090505,1001.85913,1.9861864715342743,362.4437755561849,0,0
0.4,6.6287594,-1.6235808999999999,6.079992,1001.9169,2.0947516809139852,384.4176521707213,0,0
0.42,8.172591,-1.547315,2.5670598,1001.8691,2.2012315815220025,406.0565947595111,0,0
0.44,8.363748,-3.2871072,4.697538400000001,1001.9123,2.3084688558630293,427.3218449698314,0,0
0.46,8.75565,-3.8686263999999997,2.3682075,1001.9147,2.4154085860525134,448.1803543337791,0,0
0.48,10.610171000000001,-4.5311765999999984,3.239334,1001.9273,2.5261119771090432,468.6044222121617,0,0
0.5,10.968613000000001,-5.2080269999999995,1.2319423,1001.8671,2.64020222713637,488.5708742295368,0,0
0.52,12.717984,-4.6503385999999995,2.0367877,1001.8798,2.7599697572373207,508.06114336486297,0,0
0.54,12.307299,-4.6598809999999995,2.1930577999999996,1001.88495,2.883590085370156,527.0605108767238,0,0
0.56,11.231816,-4.4072533,0.25668386,1001.9028,3.0075235385544223,545.5577842510478,0,0
0.5800000000000001,10.701236999999999,-4.4120193,0.20460334,1001.8975,3.130266155216205,563.5447979812968,0,0
0.6,10.710768,-4.197523,1.2651073999999998,1001.9530599999999,3.251507133372416,581.0163930566121,0,0
0.62,10.189745,-3.3681414,0.39397475,1001.9659,3.3692512516866118,597.9697126901566,0,0
0.64,10.113245,-4.779042,0.6070208,1001.9582,3.484443629005312,614.4040244726721,0,0
0.66,9.553980000000001,-4.507347599999999,-0.90799123,1001.97864,3.5957211025528952,630.3206509796013,0,0
0.68,9.415341999999999,-4.8648386,-0.6286635,1001.9331699999999,3.703167308619056,645.7223872295972,0,0
0.7000000000000001,8.722247,-5.575055,0.70170206,1001.9133,3.8063404674591648,660.6136486660671,0,0
0.72,7.914433,-6.2233067,1.2603593000000002,1001.8859,3.904891044798796,675.000147376134,0,0
0.74,7.641959700000001,-6.7047276,1.0899185,1001.8907,3.9991639963124426,688.8888636257951,0,0
0.76,7.512886,-6.461633,0.35134974,1001.9034,4.088675823813067,702.2877856349428,0,0
0.78,7.536753,-6.4854650000000005,-0.2972666,1001.9010599999999,4.1737246812632485,715.2056809099397,0,0
0.8,7.0539694000000015,-7.171849000000001,-0.66655236,1001.8835,4.254802607115465,727.6519733236514,0,0
0.8200000000000001,7.0921826,-7.381576499999999,0.45549923,1001.89355,4.332423072524503,739.636786976442,0,0
0.84,6.4134264000000005,-7.434008,-0.63815045,1001.9417,4.405861540771562,751.1708660069322,0,0
0.86,5.6295137,-8.415918,0.57858926,1001.962,4.4759697755438,762.2652263206488,0,0
0.88,5.701185,-7.9916934999999985,0.1477561,1001.9717400000001,4.542210185110082,772.9311465430942,0,0
0.9,6.016627,-7.672334700000001,0.8247735999999999,1001.9744,4.604725840568155,783.1801093640918,0,0
0.92,5.433466,-7.972626700000001,0.18089227,1001.95715,4.663444329958433,793.0236902590144,0,0
0.94,5.8062644,-6.9573493000000015,0.7111433000000001,1001.9674,4.717432230776362,802.4736756928359,0,0
0.96,6.0691285000000015,-7.5960674,1.1561749,1001.957,4.768504204048004,811.5418227896663,0,0
0.98,6.3941317,-8.558910000000001,3.2487798,1001.9697,4.819674264045426,820.2399779223826,0,0
1.0,6.604419,-6.790518,0.09092958,1001.9721699999999,4.867226565126232,828.5799036891302,0,0
1.02,6.69043,-6.900148,0.25663143,1001.9348,4.911705249524976,836.5731397233478,0,0
1.04,6.3355966,-7.4435077000000005,1.1418618,1001.9376,4.95377904970285,844.231275140178,0,0
1.06,6.364211,-6.8572197,0.90513575,1001.8949,4.992657609622111,851.5655926439848,0,0
1.08,6.196849299999999,-7.171811,0.5595179,1001.8901,5.028771451493243,858.5873638168301,0,0
1.1,6.1107445,-7.548367,0.14288403,1001.8898300000001,5.0627658449362265,865.3076897034157,0,0
1.12,6.698587400000001,-7.457801,0.5926458,1001.9124,5.095449170064193,871.7375466138701,0,0
1.14,6.7558856,-7.767626,1.1323623999999999,1001.9302,5.127510436877317,877.8876617321379,0,0
1.16,7.649636,-6.6427164,0.24228773,1001.9302,5.1584442026261135,883.7684565884035,0,0
1.18,7.123789,-7.167036,0.0055612214,1001.92285,5.188210115817358,889.3900827396816,0,0
1.2,6.679203,-7.481627499999999,0.27541643,1001.9481,5.216687050536886,894.7625604690879,0,0
1.22,6.6456800000000005,-7.5483575,-0.17435789999999998,1001.9559300000001,5.243975369678297,899.8955779211029,0,0
1.24,6.68385,-7.50069,-0.36374035,1001.9204,5.270104167679442,904.7984015011873,0,0
1.26,6.444787,-7.529288,0.0008021332300000001,1001.92834,5.294818566981691,909.4802041951456,0,0
1.28,6.6311307,-7.2718925,0.095483944,1001.95074,5.318050703277522,913.9499389844244,0,0
1.3,6.5211315,-7.4244204,-0.02761643,1001.9558,5.339972358045031,918.2162177438877,0,0
1.32,6.5019436,-7.491150999999999,-0.2406709,1001.9687,5.3607413877793535,922.287410591871,0,0
1.34,6.468421,-7.4434830000000005,-0.19806719,1001.9608,5.380294765275801,926.1715407942185,0,0
1.36,6.396651,-7.419648599999999,-0.14126095,1001.93335,5.3985665010695145,929.8763007541536,0,0
1.38,6.4061464999999975,-7.5531106,-0.18861091,1001.9513,5.415865269959185,933.4092966520373,0,0
1.4,6.3296013,-7.410112400000001,-0.54369754,1001.9337,5.431940364055606,936.7777396794597,0,0
1.42,6.233937,-7.5006747,-0.48215652,1001.9717,5.446885433159123,939.9887941956443,0,0
1.44,6.3103538,-7.3576770000000025,-0.283317,1001.95654,5.460637420018678,943.0491658510408,0,0
1.46,6.4345555,-7.3958073,-0.14129153,1001.9566699999999,5.473507932080248,945.9653772606853,0,0
1.48,6.6113443,-7.3052416,-0.28806390000000004,1001.9820599999999,5.4856629681167135,948.7438017201083,0,0
1.5,6.716431599999999,-7.2718744000000015,-0.21231976,1001.97705,5.497234231483916,951.3904572662626,0,0
1.52,6.6590050000000005,-7.457768,-0.0939659,1001.9721,5.508449994354247,953.9111360206856,0,0
1.54,6.544777,-7.371982000000001,0.12859568,1001.9494,5.519021040307326,956.3113455184197,0,0
1.56,6.563845599999999,-7.143186,0.024434216,1001.98224,5.528656330405693,958.5965858507508,0,0
1.58,6.6880770000000025,-7.119352,-0.19808686,1001.9621,5.5375736741485575,960.771940059336,0,0
1.6,6.6689105,-7.200382,-0.16968472,1001.9671,5.545919396729019,962.8423856138285,0,0
1.62,6.716664999999999,-7.310011999999999,0.12857878,1001.9674,5.553963454811352,964.8126813575681,0,0
1.64,6.6210184000000005,-7.524506,0.29901279999999997,1001.9624,5.561918137034851,966.6873736638491,0,0
1.66,6.663989999999999,-7.357675,0.048085025999999996,1001.9802,5.569556989007436,968.4709059604892,0,0
1.68,6.525332,-7.438706,-0.117623165,1001.96246,5.576824442164138,970.1674046923426,0,0
1.7,6.434471,-7.648433,-0.027673502000000003,1001.9826,5.5839437883885,971.7809656749159,0,0
1.72,6.2814684000000005,-7.662732000000001,-0.04661567,1001.9575,5.590726477119405,973.315343682688,0,0
1.74,6.1858277,-7.7151628,-0.14604218,1001.9499,5.597148754460723,974.7742044930977,0,0
1.76,5.9898089999999975,-7.729461,-0.18865615,1001.955,5.603002108408549,976.1611047690004,0,0
1.78,5.9515265999999984,-7.724694,-0.18392576,1001.94995,5.608275021537289,977.4794096956198,0,0
1.8,5.9275839999999995,-7.7342252999999985,0.024384033,1001.96783,5.612997919873066,978.7324222418764,0,0
1.82,6.123508999999999,-7.677026,-0.05137073,1001.9451,5.6173752252380975,979.9231497676777,0,0
1.84,6.1330214000000005,-7.7532897,-0.022968601,1001.97546,5.6215675993155605,981.0546649263124,0,0
1.86,6.2620263,-7.6531906,0.13799658,1001.9554,5.6255893964591905,982.1297143667473,0,0
1.88,6.3527985000000005,-7.5340257,0.13799255,1001.9756,5.629376024257529,983.1510732405952,0,0
1.9,6.3814335,-7.476825999999999,0.048034847,1001.9706,5.632887303447486,984.1212962378612,0,0
1.92,6.171075,-7.5673895,0.057499364000000004,1001.9402,5.636007181910647,985.0427333317888,0,0
1.94,6.1853676,-7.6579523,-0.018255427,1001.98065,5.638934545195854,985.9178916479892,0,0
1.96,6.1661987,-7.6484184000000015,-0.0371976,1001.9632,5.641640933372504,986.7489446462507,0,0
1.98,6.2617507,-7.576919,-0.14609294,1001.98065,5.644154895280822,987.5380972147883,0,0
2.0,6.4242177000000025,-7.5387850000000025,-0.26919174,1001.9103,5.646651489301106,988.287132354375,0,0
2.02,6.519769,-7.5483174,-0.21238294,1001.9580699999999,5.64926520002759,988.998195179238,0,0
2.04,6.534061,-7.4482183000000015,-0.34495056,1001.9407,5.65184333979635,989.6730833086417,0,0
2.06,6.5770354000000015,-7.476817,-0.16031286,1001.99335,5.654474579792153,990.3137674198712,0,0
2.08,6.576985400000001,-7.324286,-0.122442186,1001.9459,5.656905130496755,990.9217515778424,0,0
2.1,6.4813485,-7.2146535000000025,-0.13664915,1001.9656,5.658847668395327,991.4987242341457,0,0
2.12,6.5912337,-7.4196149999999985,0.010112860999999999,1001.98114,5.6608198716191325,992.0462739700121,0,0
2.14,6.5290527,-7.762805499999999,0.3793924,1001.94073,5.663281075892588,992.5657089583316,0,0
2.16,6.562461,-7.53401,0.2562933,1001.9483,5.665841459346782,993.0584590417607,0,0
2.18,6.519399,-7.414845,-0.046712656,1001.95874,5.668228329251722,993.5258940269284,0,0
2.2,6.519349,-7.357644599999999,-0.20295258,1001.9485,5.670368210767385,993.9692409613257,0,0
2.22,6.600561999999999,-7.343344,-0.26450387,1001.94574,5.672375375081932,994.3896977090984,0,0
2.24,6.4714599999999995,-7.691301299999999,-0.11300719999999999,1001.9588,5.674621661690956,994.7884620596774,0,0
2.26,6.318462,-7.629335,0.02428652,1001.95074,5.676767230966806,995.1665944404342,0,0
2.28,6.261058,-7.5769020000000005,-0.14615634,1001.9412,5.678658256305982,995.5251007920854,0,0
2.3,6.1845336,-7.834295299999999,-0.05147254,1001.9512300000001,5.680631836750619,995.8650110695528,0,0
2.32,6.275303,-7.5530667000000005,0.0006016046,1001.9663,5.682335464781677,996.1873204308728,0,0
2.34,6.2561374,-7.3528699999999985,-0.24085735,1001.96375,5.683456544836955,996.4929081289838,0,0
2.36,6.0505586,-7.6579285000000015,-0.07042308,1001.9588,5.684272518599435,996.7826026297704,0,0
2.38,5.9692583,-7.824756599999999,0.1236835,1001.9487,5.684987315602509,997.0571746411982,0,0
2.4,6.1030455,-7.800923299999999,-0.07043141,1001.95374,5.685739849946108,997.3174141057876,0,0
2.42,6.2129364,-7.6674585,-0.20299876,1001.96136,5.686452094600142,997.564079901918,0,0
2.44,6.2654676,-7.6912904000000015,-0.1603934,1001.9639,5.687231824119383,997.7978731517316,0,0
2.46,6.231962,-7.7484875,-0.018365573,1001.95886,5.688114306634564,998.0194324199208,0,0
2.48,6.289276,-7.7008214000000015,-0.13672972,1001.95386,5.68908436208292,998.2293661285812,0,0
2.5,6.413504,-7.591189,-0.22668768,1001.9363,5.6901214302448535,998.4282085154906,0,0
2.52,6.370442,-7.557822,-0.21248855,1001.9789999999999,5.691102626270492,998.6166884979081,0,0
2.54,6.276028599999999,-7.7151475000000005,-0.10348894,1001.9362,5.692153996648903,998.7951796517793,0,0
2.56,6.1421957,-7.7675796,-0.004066307,1001.96655,5.693173441714926,998.9643113685937,0,0
2.58,6.1756554,-7.696080999999999,-0.079816684,1001.94885,5.694088770543106,999.1245004926441,0,0
2.6,6.2043357000000015,-7.5864509999999985,-0.07034774,1001.95636,5.694769128262175,999.2762382968814,0,0
2.62,6.223456,-7.624583,-0.19344215,1001.9515,5.695329361759487,999.4199447628366,0,0
2.64,6.271255,-7.6150503,-0.04194108,1001.96906,5.69582533849905,999.5561006110086,0,0
2.66,6.304714700000001,-7.686548700000001,0.005403101400000001,1001.94385,5.696421534343947,999.6850038162537,0,0
2.68,6.3572935999999975,-7.486353,0.081153676,1001.9362,5.696855389858478,999.8070069946697,0,0
2.7,6.2855983,-7.4768205000000005,0.014872098,1001.9639,5.697032257868626,999.9225738179373,0,0
2.72,6.1756644,-7.4577537,-0.07034707,1001.9664300000001,5.696805108065591,1000.0320465452318,0,0
2.74,6.2330227,-7.6531825,-0.04194052,1001.95386,5.696611008302692,1000.1356951755064,0,0
2.76,6.242583799999999,-7.715147999999999,0.095357336,1001.9387,5.696560095226773,1000.2337699225853,0,0
2.78,6.428997,-7.6198169999999985,-0.013533857,1001.92615,5.696729007521258,1000.3265213373828,0,0
2.8,6.443338,-7.438688000000001,-0.21711312,1001.9413,5.696829716067307,1000.4142896906836,0,0
2.82,6.362083,-7.4482206999999985,-0.16976899,1001.9364,5.696772765897937,1000.4973214047734,0,0
2.84,6.429001,-7.534019,-0.1887065,1001.9565,5.6968033254870365,1000.575941270286,0,0
2.86,6.4911400000000015,-7.6341166,-0.07034626599999999,1001.9591,5.697150004397324,1000.65038915488,0,0
2.88,6.4863605,-7.314757000000001,-0.07981497,1001.9667,5.697267190838957,1000.7209100247496,0,0
2.9,6.462463,-7.252791999999999,-0.28812859999999996,1001.94885,5.6970601187425265,1000.7876428492772,0,0
2.92,6.3859879999999976,-7.4005556,-0.23605005,1001.94385,5.696690446654206,1000.8507703187726,0,0
2.94,6.4576864,-7.6293497000000015,0.048014317,1001.94885,5.696631076839273,1000.9105028376711,0,0
2.96,6.581962599999999,-7.5197195999999975,0.09535848,1001.96655,5.696842621818428,1000.967084261154,0,0
2.98,6.5102663,-7.4005556,-0.046673547,1001.9719,5.69700761608338,1001.0206969436034,0,0
3.0,6.362094,-7.414855499999999,-0.20764323,1001.95886,5.6969556908740255,1001.0714464968187,0,0
3.02,6.338196,-7.4529877,-0.21711187,1001.9391,5.696740704679387,1001.1194123546512,0,0
3.04,6.3755293,-7.6150284,-0.11777224,1001.9466,5.696686302907129,1001.1647728621554,0,0
3.06,6.327699,-7.672226400000001,-0.113040775,1001.92114,5.696801772292982,1001.207576328282,0,0
3.08,6.3945823,-7.5911940000000016,-0.23613845,1001.9263,5.6970310588110005,1001.2479848761699,0,0
3.1,6.2607136,-7.638859,-0.1603911,1001.94135,5.697255333930068,1001.2861859835297,0,0
3.12,6.184204,-7.6960564,-0.1982693,1001.9363,5.697467907297362,1001.3222808924517,0,0
3.14,6.14115,-7.691289,-0.15566297,1001.9086,5.697604118649705,1001.3562851027624,0,0
3.16,6.1650167,-7.681755,-0.08464983,1001.95886,5.697686094375206,1001.3885004926229,0,0
3.18,6.294039700000001,-7.6817546000000005,-0.03730872,1001.9541,5.697888150387727,1001.4190021693305,0,0
3.2,6.2892227,-7.653154400000001,-0.07992169,1001.98175,5.698143801677875,1001.4479793430597,0,0
3.22,6.293971,-7.6865196,-0.084659025,1001.95917,5.698505845009098,1001.4754238601316,0,0
3.24,6.327395,-7.6340866,-0.056255747,1001.9061,5.698920234124662,1001.50122426952,0,0
3.26,6.284347,-7.6245527000000015,-0.12727457,1001.94635,5.699308480051003,1001.5256239638852,0,0
3.28,6.3846846,-7.615018400000001,-0.23143496,1001.97675,5.699794204261428,1001.5488075875563,0,0
3.3,6.370311,-7.505387,-0.20303172,1001.9717,5.700169628988548,1001.5708150501171,0,0
3.32,6.365499,-7.5387520000000015,-0.30245712,1001.9617,5.700497989696271,1001.5916680298552,0,0
3.34,6.355907,-7.6674479999999985,-0.08467743,1001.94385,5.700967065091536,1001.6113615778444,0,0
3.36,6.4132285000000016,-7.6579137,-0.122556,1001.9515,5.701620641845543,1001.6299872951672,0,0
3.38,6.460992299999999,-7.533982799999999,-0.18884082,1001.9565,5.702304734619732,1001.6476204247313,0,0
3.4,6.398823,-7.48155,-0.07521807,1001.9516,5.702843366969191,1001.6642953844847,0,0
3.42,6.231498,-7.467249400000001,0.009998329,1001.9466,5.703003793633751,1001.6800456755392,0,0
3.44,6.1549864,-7.557813,-0.0042080507,1001.9513,5.702873535078846,1001.6949391482826,0,0
3.46,6.111934,-7.629311,0.062070495999999996,1001.9515,5.702546681876443,1001.709022639865,0,0
3.48,6.2600737,-7.533978999999999,-0.051558357,1001.95386,5.702088292006742,1001.7223482275236,0,0
3.5,6.3078375,-7.5768766,-0.089436725,1001.9413,5.7016479190441975,1001.7349109431598,0,0
3.52,6.2791247000000014,-7.662674000000001,-0.04683022,1001.9337,5.701323926065342,1001.7467269993003,0,0
3.54,6.3412294000000005,-7.595942,-0.19359972,1001.9739400000001,5.701083029613716,1001.7579856333087,0,0
3.56,6.427232,-7.581641,-0.20307165,1001.96906,5.701009127831575,1001.7686936300388,0,0
3.58,6.4271955,-7.443410000000001,-0.24095021,1001.9262,5.7008665105788605,1001.7787222388812,0,0
3.6,6.441503,-7.505374400000001,-0.3072348,1001.9388,5.700784478262952,1001.7881597975943,0,0
3.62,6.326753,-7.553039,-0.15573701,1001.9865,5.700670234043702,1001.797212849202,0,0
3.64,6.2980423,-7.6293035000000025,0.066777065,1001.9413,5.700609574570586,1001.8057308393453,0,0
3.66,6.393606,-7.4672394,-0.008976329,1001.9262,5.700466008672705,1001.8136910244143,0,0
3.68,6.3027534,-7.567336599999999,0.0052235723,1001.9839,5.700286814825665,1001.8213373962534,0,0
3.7,6.2071257000000015,-7.6197677,0.03362705,1001.9538,5.700034647302139,1001.8285705957837,0,0
3.72,6.1114955,-7.734164,0.10463999,1001.9664300000001,5.699781012765003,1001.8354581447443,0,0
3.74,6.230958,-7.6769648,-0.013723079,1001.9438,5.699588278890811,1001.8419340136844,0,0
3.76,6.2930593,-7.614998299999999,-0.14628972,1001.98145,5.699434423890471,1001.8481583490308,0,0
3.78,6.259568,-7.705562599999999,-0.1652303,1001.9739400000001,5.699417567990272,1001.854110985686,0,0
3.8,6.2499743,-7.6626625,-0.08001417,1001.9231,5.699437899667051,1001.8596190958864,0,0
3.82,6.3933344000000005,-7.533964599999999,-0.06581406,1001.9533,5.6994757414613675,1001.8648233133143,0,0
3.84,6.39808,-7.6102285000000025,-0.013738743999999999,1001.9513,5.6996559432318925,1001.8697330759056,0,0
3.86,6.374149299999999,-7.5625625,0.09988403,1001.9713,5.699854489383237,1001.874436983058,0,0
3.88,6.3693370000000025,-7.5959277,0.047802627,1001.9487,5.7001143671656695,1001.8788607022791,0,0
3.9,6.3276362,-7.619793,-0.04676487,1001.9409,5.700410045525461,1001.8829928420545,0,0
3.92,6.294175,-7.5959600000000025,-0.0041554533000000005,1001.9713,5.700653536345528,1001.8869619065283,0,0
3.94,6.394548,-7.5339947,-0.05149975,1001.9635,5.700885688498981,1001.8907445090342,0,0
3.96,6.461462,-7.5006285,-0.09884408,1001.9709,5.701145410336764,1001.8943753763757,0,0
3.98,6.318065,-7.543527,-0.14618838,1001.9559300000001,5.70130478844388,1001.8978052074041,0,0
4.0,6.2511454,-7.629325,-0.07990697,1001.9659,5.701421940914685,1001.9010809473536,0,0
4.02,6.2272434,-7.6007257,0.038452905,1001.9457,5.7014233793251465,1001.9041360197627,0,0
4.039999999999999,6.284599,-7.605492,0.076327875,1001.9533,5.701406418699872,1001.9070124720723,0,0
4.06,6.298935,-7.576892999999999,-0.04203252,1001.9937,5.7013460829430365,1001.9098661804337,0,0
4.079999999999999,6.279813,-7.576892999999999,-0.098845646,1001.9406,5.701223098742463,1001.9124983588921,0,0
4.1,6.298929,-7.58166,-0.15565877,1001.9634,5.701079720636701,1001.9150073976857,0,0
4.119999999999999,6.327605,-7.6054916,-0.16512784,1001.9681,5.70099534061367,1001.9174155177324,0,0
4.14,6.3945193,-7.5482929999999975,-0.20300336,1001.97815,5.700963233316419,1001.9197619767416,0,0
4.159999999999998,6.3610587,-7.5149274,-0.07990906,1001.948,5.700875908761844,1001.921936964806,0,0
4.18,6.3419356,-7.567360000000001,-0.23141028,1001.9454300000001,5.700802819004762,1001.9239433591864,0,0
4.199999999999998,6.294135,-7.5578265,-0.056237545,1001.9808,5.700658364393207,1001.9259208931676,0,0
4.22,6.3467107,-7.495861,-0.037300203,1001.948,5.700422826010074,1001.9277477269783,0,0
4.239999999999998,6.413625,-7.5006274999999984,-0.16512941,1001.9555,5.70020805161198,1001.929461825516,0,0
4.26,6.2893467,-7.4910945999999985,-0.13198884,1001.9657,5.6998292751014725,1001.9311068604125,0,0
4.279999999999999,6.160289,-7.5959587,-0.06570743,1001.9756,5.699302940676325,1001.9327205885492,0,0
4.3,6.2224236,-7.576892,-0.051504467000000005,1001.9502,5.698698893262496,1001.9342094046119,0,0
4.319999999999999,6.294118,-7.505394,0.081058614,1001.9856,5.698009576261708,1001.9357099286287,0,0
4.34,6.2941150000000015,-7.619791499999999,-0.0562394,1001.96783,5.69742978294077,1001.9371514239066,0,0
4.359999999999999,6.241534,-7.653157000000001,-0.027833242,1001.95526,5.696932869786327,1001.938490320008,0,0
4.38,6.2271924000000025,-7.533993,-0.08938077,1001.9580000000001,5.69630140580843,1001.9397436034512,0,0
4.4,6.308994,-7.548306,-0.10826851400000001,1001.96783,5.6956852715821435,1001.9409521157294,0,0
4.42,6.2612133000000005,-7.538773,-0.11773565400000001,1001.9753400000001,5.695006340015131,1001.9421437535616,0,0
4.44,6.275572,-7.557840299999999,0.0006261951999999999,1001.9628,5.6943224498599765,1001.9432710472372,0,0
4.46,6.289932,-7.5912066,-0.06091921400000001,1001.97284,5.693709464416092,1001.9443735721593,0,0
4.48,6.2325907,-7.61504,0.066911206,1001.9678,5.693123894506277,1001.9454320983203,0,0
4.5,6.385565,-7.4577436000000015,0.05744426,1001.96277,5.692517945086057,1001.9464298284823,0,0
4.52,6.47162,-7.448211,0.0006331466,1001.9526400000001,5.691997640477937,1001.947333779471,0,0
4.539999999999999,6.1991878,-7.6531734,-0.05617818,1001.96783,5.691517612083333,1001.9482062969583,0,0
4.56,5.993675,-7.7771044000000025,0.05271486,1001.9753,5.6910121403808525,1001.9490747907414,0,0
4.579999999999999,5.9841347,-7.8486032,0.13793589,1001.9703,5.6905935947627135,1001.9499186026013,1,1
4.6,6.1036487,-7.867669999999999,0.2278913,1001.9776,5.690439633577533,1001.9507638477913,1,1
4.619999999999999,6.0606484000000025,-7.839070299999999,0.10006404,1001.9649699999999,5.690413922485759,1001.9515618485893,1,1
4.64,6.1562634,-7.991602,-0.36864027,1001.94995,5.690886969621731,1001.9522611594392,1,1
4.659999999999998,6.2948965999999995,-8.001135000000001,-0.04196464,1001.9674699999999,5.691977845778553,1001.9529338223323,1,1
4.68,6.3713940000000004,-8.253762,-0.1555885,1001.9372599999999,5.694124841841957,1001.953471761504,1,1
4.699999999999998,6.3236136,-7.8533725999999975,-0.4207135,1001.9723,5.696498091268213,1001.9540148662152,1,1
4.72,6.118101,-7.205121000000001,-0.75685453,1001.9296,5.697796702101924,1001.9544068600193,1,1
4.739999999999998,6.10856,-7.6150455,-0.5201325,1001.9548300000001,5.698751523304617,1001.9547547490483,1,1
4.76,6.772972,-7.462516,0.5167037999999999,1001.98236,5.700053550107849,1001.9551615226982,1,1
4.779999999999999,7.6333537,-7.667478599999999,0.19003141,1002.0075699999999,5.7031748915939025,1001.9557096184134,1,1
4.8,9.4258,-7.1145587,-2.2055755,1001.9597,5.710371332470647,1001.956208281161,1,1
4.819999999999999,12.379739,-5.284201,-3.0861728,1001.9445,5.724875495086803,1001.9566067497526,1,1
4.84,14.411173000000002,-4.1116285,-2.1866342999999997,1001.9674,5.748559957739593,1001.956997692301,1,1
4.859999999999999,14.014467000000002,-4.950543,-2.1392887000000003,1001.9467,5.780003557805308,1001.9573060574443,1,1
4.88,12.250739,-6.0659175,-0.8799353000000001,1001.9669,5.81545100964131,1001.9576130670785,1,1
4.9,10.099086999999999,-7.533999400000001,-0.21718653,1001.9872,5.852028651302392,1001.9579908537497,1,1
4.92,8.526521,-8.40628,0.22311217,1001.9568,5.888172333304049,1001.9583203789788,1,1
4.94,6.7723203,-9.025931,1.1747264,1001.99475,5.922491858236167,1001.9587426941067,1,1
4.96,5.6251564000000025,-9.531186,1.4777273000000002,1001.9948,5.954702785444872,1001.9592456580552,1,1
4.98,4.482772,-9.126028,0.34620357,1001.9669,5.982872590700588,1001.9597176326307,1,1
5.0,3.2495722999999996,-9.111728,0.99008167,1001.96924,6.006436833855235,1001.9601689498887,1,1
5.02,3.0201297,-10.284301,1.3214887,1001.9465,6.028081862529104,1001.960518525598,1,1
5.039999999999999,2.7285502,-10.646560000000001,0.16629304,1001.9467,6.048352551590318,1001.9607776640026,1,1
5.06,2.3939529999999998,-10.174669999999999,-1.575969,1001.9139,6.066460342517876,1001.9608378791064,1,1
5.079999999999999,1.8108063,-11.01835,-3.1335892999999997,1001.9088,6.084726119132763,1001.9607037488074,1,1
5.1,5.056280999999999,-11.738099,-4.3455973,1001.9416,6.107018672151188,1001.9605164577797,1,1
5.119999999999999,8.717601,-11.933527999999999,-4.648600599999999,1001.9488,6.136931499613437,1001.9603087881793,1,1
5.14,10.548254,-16.0137,-0.61962324,1001.9516,6.181146092015197,1001.9600939396828,1,1
5.159999999999998,10.658178,-16.490354999999994,2.8128192000000003,1001.9918,6.239188949724689,1001.9600182413687,1,1
5.18,13.549948,-12.691410000000001,2.3725188,1001.95386,6.306915745241381,1001.9599291846694,1,1
5.199999999999998,15.724748000000002,-8.625537,2.2210164,1001.9642,6.38161638251438,1001.9598658691051,1,1
5.22,13.277476,-7.147904,1.6576210999999998,1001.9287,6.456178485061544,1001.9596977263437,1,1
5.239999999999998,11.972579,-5.2412806,3.6650078,1001.9386599999999,6.5270317695058475,1001.9594734195848,1,1
5.26,10.93535,-3.5634522000000004,4.531403,1001.9512300000001,6.591833901199482,1001.9592455458223,1,1
5.279999999999999,9.501398,-2.4433112,0.72967494,1001.92114,6.645809571055063,1001.9589070166006,1,1
5.3,10.490806,-2.5910737999999998,-1.6280596999999999,1001.9032,6.692290986454065,1001.9584073469206,1,1
5.319999999999999,11.8387,-2.2145157,-8.582902,1001.8781,6.740008820500157,1001.9576767323424,1,1
5.34,11.030901,-3.4252207,-9.312000000000001,1001.9108,6.788745670064273,1001.9568624050647,1,1
5.359999999999999,11.403716000000001,-5.498673,-3.6827943,1001.9635599999999,6.834774486490282,1001.9561669768241,1,1
5.38,12.087214999999999,-5.9848614,1.1983757,1001.961,6.878984551528022,1001.9555698953136,1,1
5.4,12.522167,-7.9153166,3.2483722999999998,1001.98584,6.924806246681922,1001.9551512864682,1,1
5.42,13.951316,-11.256673,0.52135384,1001.99097,6.977639844115322,1001.9549103510609,1,1
5.44,12.182777999999999,-14.407367,-0.65277946,1001.9886,7.038443470190642,1001.9548187432713,1,1
5.46,12.851939,-13.916410999999998,0.48821104,1001.9530599999999,7.106216604538088,1001.9547314671527,1,1
5.48,10.538504,-13.749579999999998,-0.31663883,1001.97327,7.17653124065303,1001.9547210886923,1,1
5.5,9.506055,-12.691405,0.9616495,1001.9506,7.2458439502568925,1001.9546970823656,1,1
5.52,7.522423299999999,-11.294805,0.24675325,1001.9707599999999,7.309214115907634,1001.9547336968789,1,1
5.539999999999999,5.8016834,-9.821938000000001,0.12839215,1001.9352,7.362606272117372,1001.954695728154,1,1
5.56,4.3390527,-8.778061,0.31776735,1001.9555,7.403641040029013,1001.9546650743672,1,1
5.579999999999999,1.8057453999999997,-9.254717,0.6586435,1001.9454300000001,7.432892307229332,1001.9546047424134,1,1
5.6,0.1567017,-9.645575,-0.17934725,1001.9229,7.452034376053014,1001.9544372960263,1,1
5.619999999999999,-0.16355658,-10.689449,-1.7653738,1001.90265,7.464642105470312,1001.9541029061332,1,1
5.64,0.8879903,-12.28148,-1.6612179,1001.9302,7.474734653322026,1001.9537213887616,1,1
5.6599999999999975,4.4728303,-12.691403,-0.50602424,1001.9101,7.484732002971407,1001.9532272430124,1,1
5.68,8.401819,-11.890621000000001,0.0052904524,1001.92523,7.496881865470737,1001.9526898257536,1,1
5.6999999999999975,10.949444,-11.537894999999999,-1.5475954,1001.9251,7.513845636762109,1001.9521156404908,1,1
5.72,11.322257,-12.095583,-3.857986,1001.9124,7.5371420814938785,1001.951465314087,1,1
5.7399999999999975,10.806026,-12.133716,-3.0342004,1001.8898300000001,7.564947725411823,1001.9506687985457,1,1
5.76,11.006767,-11.247135,-0.8090313,1001.9501300000001,7.595034506754584,1001.949963057739,1,1
5.779999999999999,11.083234,-10.541684,0.47399142,1001.9501300000001,7.62608429647844,1001.949340066154,1,1
5.8,11.068883,-8.944888,-0.28351435,1001.95746,7.6556511523040385,1001.9488188225514,1,1
5.819999999999999,12.308530000000001,-6.5521173,0.19007961,1001.9477,7.683200462909025,1001.9483542239427,1,1
5.84,13.159360000000001,-3.2250612000000003,-0.07031028,1001.9223599999999,7.708044527444128,1001.9478501254064,1,1
5.859999999999999,12.729202,-2.972434,0.677728,1001.9273699999999,7.7294531823044625,1001.947330975488,1,1
5.88,12.351624000000001,-4.6740956,-1.4622205,1001.93744,7.748160623310594,1001.9468366471083,1,1
5.9,13.584836,-5.822837,-3.3843864999999997,1001.9399400000001,7.768312206406728,1001.9463750306224,1,1
5.92,15.439425,-6.5044546,-0.96510357,1001.9473,7.793031694608254,1001.9459704761853,1,1
5.94,13.355456,-6.661751700000001,0.7866284,1001.9649699999999,7.817882416474278,1001.9456814101704,1,1
5.96,11.132875,-10.112739999999999,0.18062711,1001.9697,7.8429589158419315,1001.9455124583627,1,1
5.98,10.913028,-13.668591500000002,-0.17918544,1001.98004,7.873237502749678,1001.9454874716955,1,1
6.0,10.77922,-16.518993,0.010193085,1001.97,7.912645291082318,1001.9455536385783,1,1
6.02,9.918878999999999,-15.813544,1.2884845,1001.9545,7.957871184265612,1001.9456443105373,1,1
6.039999999999999,8.919924,-13.168104999999999,2.2022269,1001.98474,8.002557426931226,1001.945865172762,1,1
6.06,7.1896615000000015,-11.499811,1.3642397,1001.9671,8.041564018668266,1001.946136772002,1,1
6.079999999999999,6.6734667000000005,-10.25574,1.2648194,1001.9317,8.072647805635821,1001.9463247847114,1,1
6.1,6.2863264,-8.9735365,0.9570853000000001,1001.9496,8.093911035481437,1001.9465027035159,1,1
6.119999999999999,5.0197059999999984,-7.9439600000000015,0.83399326,1001.92926,8.103169251423363,1001.9465978388392,1,1
6.14,4.102009,-7.9534949999999975,0.616213,1001.92163,8.100822588092774,1001.9465920161913,1,1
6.1599999999999975,3.7722269999999996,-8.74951,0.23272844,1001.9039300000001,8.089395689211758,1001.9464332880408,1,1
6.18,2.8449705,-9.09747,0.17118353,1001.9013,8.069992009925507,1001.9461305560104,1,1
6.1999999999999975,2.3670174999999998,-9.183269000000001,-0.6668036,1001.9393,8.043554524053091,1001.9458384719867,1,1
6.22,1.239006,-8.501652,-0.9224594000000002,1001.8863,8.009197218504317,1001.945366048044,1,1
6.2399999999999975,3.3278062000000004,-7.696103599999999,-0.39220375,1001.9013,7.967452457594232,1001.9447899764754,1,1
6.26,6.429926,-9.025974,-3.1428905,1001.8812,7.925825980391318,1001.944052035722,1,1
6.279999999999999,8.169797,-13.787765,-3.5453126000000004,1001.89124,7.89462757649585,1001.9432098679436,1,1
6.3,10.234698,-15.999448000000001,-2.6221015,1001.9114400000001,7.878490495083292,1001.9423513569701,1,1
6.319999999999999,11.869697,-16.228248999999998,-2.839856,1001.92865,7.8780732513141425,1001.9415434517888,1,1
6.34,14.125801000000001,-13.468415,-2.0397382,1001.92615,7.890130996718459,1001.9407741703442,1,1
6.359999999999999,13.748228,-10.37492,-1.4479349,1001.9666,7.908305625804983,1001.9401874062463,1,1
6.38,15.45466,-6.447278,1.9939811,1001.9209,7.930945708517893,1001.9395995068272,1,1
6.4,10.765718,-5.7656612,1.5347481,1001.9159,7.947981802068531,1001.938994720676,1,1
6.42,8.949419,-6.6570085999999975,1.1512637,1001.9363,7.9577281190639315,1001.9384506306379,1,1
6.44,8.390219,-7.562655,-0.61466587,1001.9284,7.961204244826927,1001.9379336904103,1,1
6.46,10.053626,-6.142222,-1.3626986,1001.9008,7.960265929320352,1001.9373432407396,1,1
6.48,12.7781515,-4.2975655,-0.40161088,1001.9311,7.9588130308775,1001.9367990437437,1,1
6.5,14.001816,-5.9706273,-0.71407855,1001.9259,7.960549964034248,1001.9362789547208,1,1
6.52,11.521131500000001,-8.244276,-0.037055474,1001.9233,7.9628724446356145,1001.9357726798233,1,1
6.539999999999999,9.853017999999999,-8.39204,0.6825775,1001.9385,7.963196113088753,1001.9353351536763,1,1
6.56,9.322496000000001,-10.803919,0.47426698,1001.9183300000001,7.964490665543915,1001.9348873370196,1,1
6.579999999999999,9.446808,-14.145276,-0.43473536,1001.9558,7.972327976682324,1001.9345669318086,1,1
6.6,9.19829,-14.984191000000001,0.038708065,1001.9635,7.987096694139353,1001.9343879808097,1,1
6.619999999999999,9.943978,-13.010838,1.3501416000000002,1001.98364,8.00554459206815,1001.934407166976,1,1
6.64,9.513833,-12.067060000000001,2.4295895,1001.9580699999999,8.025360453500843,1001.9345093060713,1,1
6.6599999999999975,8.887723,-12.925041,1.572666,1001.9507,8.046744488934674,1001.9346578426744,1,1
6.68,8.581844,-11.614239,0.7820233,1001.9707599999999,8.066729896069825,1001.9349190573828,1,1
6.6999999999999975,7.7167344,-9.817248,1.4590464,1001.9683,8.08147918387924,1001.935270038093,1,1
6.72,6.8755235999999975,-9.345359,1.8946146000000001,1001.9507,8.089852238261138,1001.9356357125113,1,1
6.7399999999999975,6.0534362999999995,-10.336803,1.9656343,1001.93066,8.093357808653181,1001.9359409098621,1,1
6.76,4.1606708,-10.670463999999999,1.8330741999999998,1001.9078,8.091426714914316,1001.9361092749657,1,1
6.779999999999999,2.1627452000000003,-9.636122,1.5584818,1001.9,8.081371839269545,1001.9361280489816,1,1
6.8,0.6236873000000001,-8.287188,0.7062925999999999,1001.8749,8.060729988161809,1001.9359242167253,1,1
6.819999999999999,0.06321132,-7.362445,-0.07026319,1001.87494,8.028776035943771,1001.9355245673637,1,1
6.84,1.7887065,-6.852423,-0.9603325999999999,1001.9103,7.986492370914742,1001.9350806287453,1,1
6.859999999999999,4.2694116,-7.5340405,-2.4848122999999998,1001.8648699999999,7.93910422056193,1001.9344356063184,1,1
6.88,5.7893763,-10.031716000000001,-3.3654125,1001.8849,7.8937204968093075,1001.9336873363196,1,1
6.9,7.347577,-14.197686,-2.3664544,1001.8949,7.85879098244605,1001.9328865305375,1,1
6.92,10.282364,-14.621909,-2.2386267,1001.9277,7.8370790013495135,1001.9321602670387,1,1
6.94,11.635035,-14.021323,-2.5274267000000004,1001.9125,7.827913162075823,1001.93144776365,1,1
6.96,12.949469,-12.677155,-3.2801980000000004,1001.8924599999999,7.829911220825133,1001.9306778397064,1,1
6.98,12.858637,-11.023158,-4.5916295,1001.9200400000001,7.839962173006103,1001.9299592386867,1,1
7.0,12.437999999999999,-8.349119,-4.6011,1001.9376,7.853190992664765,1001.9293517895667,1,1
7.02,12.227674,-6.0564050000000025,-3.569001,1001.9502,7.865923914532237,1001.9288901010817,1,1
7.039999999999999,11.71622,-4.9839296,-3.2991412,1001.9602699999999,7.87619478606875,1001.9285951207725,1,1
7.06,11.754446000000002,-4.783734,-2.7310138,1001.93756,7.883896583921317,1001.9283667497364,1,1
7.079999999999999,12.089016,-4.802798999999999,-1.8504162,1001.9604,7.889628914165742,1001.92828028079,1,1
7.1,12.476168,-6.7141886,-1.0455683,1001.9222,7.895819261107193,1001.928181987818,1,1
7.119999999999999,11.778302,-9.5645895,-0.28333044,1001.9725,7.904405392733313,1001.9282546809918,1,1
7.14,10.592897,-8.487347999999999,0.32267198,1001.9675,7.911756554810285,1001.9284601958285,1,1
7.1599999999999975,10.129246,-8.039291,0.06701323,1001.97504,7.9166483504515135,1001.9288094760333,1,1
7.18,9.933256,-11.056519999999999,-0.6052736999999999,1001.9775,7.923389097447657,1001.9292933859086,1,1
7.1999999999999975,10.215253,-15.293988,0.16643296,1001.9825400000001,7.939049176635728,1001.9299126564853,1,1
7.22,9.875873,-14.493208,1.9939118999999998,1002.0077,7.960992985591576,1001.9307398784033,1,1
7.2399999999999975,10.143529,-12.691449,2.91712,1001.9801,7.986031649667341,1001.9316485081276,1,1
7.26,8.097757000000001,-11.647572,2.8650398,1001.97473,8.009486252189827,1001.932606466723,1,1
7.2799999999999985,6.5251875,-10.55603,1.2648098,1001.9671,8.027303886201919,1001.9335770956576,1,1
7.3,5.6695886,-9.454956,0.31792757,1001.9445,8.037072850747162,1001.93447406584,1,1
7.3199999999999985,4.852936,-8.978317,0.03392677,1001.93445,8.037984005886054,1001.935266542056,1,1
7.34,4.3606300000000005,-8.558860000000001,0.27538267,1001.90674,8.029825603772036,1001.9358640784891,1,1
7.3599999999999985,4.499257599999999,-8.392031,0.052866943,1001.9067,8.013500989111987,1001.9362870709987,1,1
7.38,4.126444,-8.392032,-0.34008765,1001.88904,7.989677886921407,1001.9364907377246,1,1
7.399999999999999,2.6686177000000004,-8.406331,-0.6146819,1001.8866,7.958240917686275,1001.9364910909877,1,1
7.42,1.7795870999999999,-8.544561,-1.3958576,1001.8943,7.920184702313418,1001.9363395152036,1,1
7.439999999999999,0.8953409999999999,-9.893498,-1.6089041000000002,1001.89667,7.878961897036864,1001.9360627725861,1,1
7.46,3.5768251,-9.922097,-1.0833839,1001.89636,7.836210281238237,1001.9356753128278,1,1
7.479999999999999,6.8796820000000025,-11.309166000000001,-0.9792257,1001.9243,7.797813074858418,1001.9352920022592,1,1
7.5,9.914871,-12.934562,-2.8635175,1001.914,7.7702057264154645,1001.9348766578328,1,1
7.52,12.185292,-13.129991,-4.4448075,1001.9013699999999,7.7561997929804205,1001.9343890355292,1,1
7.539999999999999,12.720642999999999,-13.268220999999999,-0.908206,1001.9316,7.7541525882042635,1001.933948131934,1,1
7.56,11.774256,-10.865877000000001,2.505301,1001.944,7.758134222308719,1001.9335947362422,1,1
7.579999999999999,10.842205,-7.781915,2.6994126,1001.9742,7.762023663210541,1001.9334286547582,1,1
7.6,8.3901825,-7.3052597000000015,0.28960216,1001.9516,7.760647459307822,1001.9333473220024,1,1
7.619999999999999,7.176127,-7.7866826,-1.0691706,1001.92615,7.753614067507812,1001.9332495460196,1,1
7.64,6.387471700000001,-7.6961179999999985,-0.7851053000000001,1001.944,7.7403380310070835,1001.9332018527961,1,1
7.6599999999999975,7.185714,-7.109832000000001,0.6730928,1001.96155,7.7217990055200305,1001.9332617643934,1,1
7.68,8.304200999999999,-6.5521455,1.2080817,1001.9309699999999,7.699747962840347,1001.9333064519291,1,1
7.6999999999999975,9.929349,-5.6322002,0.30854613,1001.9259599999999,7.676279906187173,1001.9333194906084,1,1
7.72,11.095631,-5.1936774,-0.19329984,1001.91583,7.653375344790112,1001.9332680494192,1,1
7.7399999999999975,11.788719,-5.24611,-1.2017266000000002,1001.9689300000001,7.632519822104988,1001.9333509790068,1,1
7.76,10.526864999999999,-8.468303,-1.466852,1001.9638699999999,7.614860376428568,1001.9335341240657,1,1
7.7799999999999985,9.346264999999999,-10.803916000000001,-2.1675427000000003,1001.9639,7.6018748128439615,1001.9338052681934,1,1
7.8,8.791822999999999,-11.261505999999999,-2.3900582999999997,1001.96375,7.593141590113675,1001.9341526521789,1,1
7.8199999999999985,8.849484,-10.551296,-1.9639341000000001,1001.96906,7.587001904701233,1001.934585267121,1,1
7.84,9.231895,-10.370168,-1.4194752,1001.9889,7.583271659254661,1001.935163058722,1,1
7.8599999999999985,9.590399,-11.161416000000001,-1.0833309,1001.9586,7.583344693000242,1001.935757968369,1,1
7.88,9.695583000000001,-13.077574,1.1513108,1001.9485,7.590030329222187,1001.9363295018472,1,1
7.899999999999999,7.334387299999999,-13.172904999999998,3.2675924,1001.971,7.6006783009631285,1001.9369593226218,1,1
7.92,5.0305467,-12.124263000000001,4.0108957,1001.961,7.611252480993371,1001.9376023786967,1,1
7.939999999999999,3.945554,-10.3177395,3.1681745,1001.9737,7.617080485517736,1001.9383005344813,1,1
7.96,4.423559,-8.353918,1.222336,1001.9309,7.614619518529278,1001.9388907830086,1,1
7.979999999999999,4.6434574,-7.3386416,0.5547876,1001.9131,7.603119186080151,1001.9393194797883,1,1
8.0,4.3710337,-7.510238,0.15236546,1001.94073,7.583650089177334,1001.9397033541356,1,1
8.02,4.5287914,-7.858198,-0.7187628,1001.91785,7.558056377421411,1001.939963873434,1,1
8.04,3.9313413999999995,-8.454017,0.84832746,1001.9407,7.5276911518562235,1001.9401967183417,1,1
8.059999999999999,3.2717505,-8.182324000000001,1.4353957,1001.91534,7.4923179429945055,1001.9403129759163,1,1
8.08,3.2908952000000005,-7.200414,0.1381711,1001.938,7.450547127034087,1001.9404073743956,1,1
8.1,5.073787,-8.139426,-1.3105544,1001.9,7.406936903037816,1001.9403453183443,1,1
8.12,7.2773023,-9.264335,-2.9533906,1001.905,7.366981574006183,1001.940163242471,1,1
8.139999999999999,9.67201,-10.446442,-3.5073135000000004,1001.9431,7.335630514145111,1001.9400129325568,1,1
8.16,11.153768,-9.845856,-3.8765953,1001.90265,7.313475756909622,1001.9397456121593,1,1
8.18,12.1814575,-6.6903960000000025,-4.3358297,1001.9176,7.297830489221264,1001.9394296836521,1,1
8.2,11.827776,-4.826672599999998,-4.4683910000000004,1001.9227,7.285863295724367,1001.939090302362,0,0
8.219999999999999,10.542034,-5.641755,-2.754534,1001.9502,7.274562559470757,1001.9388304199657,0,0
8.24,9.719933000000001,-7.6866083,-1.5898683,1001.9630000000001,7.264356154277487,1001.9386877983684,0,0
8.26,7.4877895999999975,-8.315794,0.37491214,1001.9477,7.252457429422815,1001.9385942218507,0,0
8.28,5.6093519999999994,-6.5092697,1.6721413,1001.9656,7.234029593541338,1001.9386087584413,0,0
8.299999999999999,4.892403,-6.6522675000000016,1.6247993,1001.9450699999999,7.209196478315537,1001.9386448634424,0,0
8.32,5.1553515999999995,-7.724744,0.21868649999999998,1001.9273699999999,7.1806089546050895,1001.9386361763127,0,0
8.34,6.579759599999999,-7.4959497000000015,-1.3152583,1001.9325,7.150409053093921,1001.9386064101303,0,0
8.36,7.9563679999999986,-6.7428339999999976,-1.4478191999999999,1001.9327,7.119867649503275,1001.9385588456552,0,0
8.379999999999999,8.525192,-6.161315,-0.9791108000000001,1001.9526400000001,7.0892067276889446,1001.9385675098404,0,0
8.4,8.343584,-6.7666683,-1.4194081,1001.9223,7.059115701759271,1001.9385166024792,0,0
8.42,7.315952999999999,-7.6484823,-3.2326827000000002,1001.96265,7.030116237453166,1001.9385585009655,0,0
8.44,6.1305879999999995,-8.091773,-3.9949193,1001.96265,7.001859156578533,1001.9386822518647,0,0
8.459999999999999,5.95854,-7.7962465,-3.0338328,1001.91455,6.9730320111518465,1001.9387047220528,0,0
8.48,6.0015849999999995,-7.462588,-1.5614306,1001.95984,6.942624640461363,1001.9388006637114,0,0
8.5,6.0063910000000025,-7.3481917,-1.031175,1001.94745,6.910605300808103,1001.9389165753715,0,0
8.52,6.2454085,-7.71045,-1.0737821,1001.9472,6.8781787873624864,1001.9390488152433,0,0
8.54,6.852469999999999,-7.715217599999999,-0.808653,1001.9247,6.846278587227683,1001.9391140066588,0,0
8.559999999999999,6.8524966,-7.1908975,-1.3152319,1001.9445,6.814270643509296,1001.9391909993698,0,0
8.58,6.508376,-6.4520817,-1.5282778000000001,1001.9218,6.780768172867383,1001.9391964225314,0,0
8.6,6.2885327,-6.595078999999999,-1.5756193,1001.93695,6.745975982262022,1001.939193127316,0,0
8.62,6.006549400000001,-6.8429410000000015,-1.3010216000000001,1001.9092400000001,6.7100650873213485,1001.9390823844052,0,0
8.639999999999999,6.221668,-6.9478054,-0.9459386000000001,1001.9368,6.673661931280093,1001.9389763153854,0,0
8.66,6.4798007,-7.5388594,-0.6145282,1001.9343,6.638172209669054,1001.9388657580639,0,0
8.68,6.814413,-7.653257000000001,-0.6666042,1001.9368,6.604259844811678,1001.9387606328861,0,0
8.7,7.2780809999999985,-7.5674600000000005,-0.8086339,1001.9419,6.572406715083639,1001.9386790460001,0,0
8.719999999999999,6.9005046000000005,-6.823878,-1.5235264,1001.93146,6.541018625381317,1001.9385809672623,0,0
8.74,6.470349,-6.6141496,-1.5235239,1001.94434,6.509226767815952,1001.9385150374072,0,0
8.76,6.3222,-7.133704700000001,-1.0122061,1001.9418,6.477625647157246,1001.9384686076528,0,0
8.78,6.4943,-7.462598,-0.96012515,1001.91895,6.447041730412567,1001.9383573153343,0,0
8.799999999999997,6.8097935,-7.4006333,-1.116358,1001.9490400000001,6.41783983921409,1001.9382974351062,0,0
8.82,6.9046449999999995,-7.319584,-1.2679273000000002,1001.94147,6.39001236152931,1001.9382559461703,0,0
8.84,6.8329434000000004,-7.124155,-1.2205836,1001.9441,6.363093334464388,1001.9382403251403,0,0
8.86,6.689546000000001,-6.9430255999999995,-1.0217389000000001,1001.93896,6.3365519279338045,1001.938229113228,0,0
8.879999999999997,6.598725999999999,-7.0145240000000015,-0.9507230999999999,1001.9289,6.31040229508729,1001.9381856215743,0,0
8.9,6.570042999999999,-7.195653,-0.99333304,1001.9366,6.284936237873192,1001.9381414841116,0,0
8.92,6.7564516,-7.29575,-0.9270517,1001.944,6.2605659224376895,1001.9381235749067,0,0
8.94,6.7373285,-7.3338833,-0.8134263,1001.9515,6.23726215633865,1001.9381559054635,0,0
8.959999999999997,6.7421050000000005,-7.3720155,-0.9175834999999999,1001.94147,6.21506829074407,1001.9381964034841,0,0
8.98,6.6034865000000025,-7.2480845,-0.97913116,1001.9487,6.193564503981634,1001.9382700004824,0,0
9.0,6.546126,-7.2290187,-1.1685078000000002,1001.949,6.172682014169572,1001.9383736587884,0,0
9.02,6.3931675000000014,-7.5960436,-1.0312104,1001.9513,6.152755323970517,1001.938511786096,0,0
9.04,6.316687,-7.5865097000000015,-1.0548828000000001,1001.9614,6.1336334828590084,1001.9387162329547,0,0
9.06,6.331023,-7.2385509999999975,-0.960195,1001.92865,6.114743402335996,1001.9388606437607,0,0
9.08,6.335799,-7.12892,-1.0406802,1001.9386599999999,6.095980025214812,1001.9389875228312,0,0
9.1,6.3071165,-7.3577147,-1.092759,1001.9136,6.0777252132017425,1001.939008238096,0,0
9.12,6.268873999999999,-7.329115400000001,-1.0264777,1001.94116,6.0598742044555625,1001.9390342884464,0,0
9.14,6.2832102999999995,-7.305282000000001,-0.94599307,1001.9286,6.042409128134043,1001.9390197430977,0,0
9.16,6.3692427,-7.410146000000001,-0.85130537,1001.9511,6.025610428336607,1001.9390503797523,0,0
9.18,6.4552760000000005,-7.310049,-0.8702433,1001.9562400000001,6.0094252221337126,1001.9391393329337,0,0
9.2,6.6130055999999975,-7.2480835999999975,-1.0359478000000002,1001.9233,5.9939963276844965,1001.9391609103658,0,0
9.22,6.804193499999999,-7.2480835999999975,-1.2111212,1001.96625,5.979600585637277,1001.9392774969076,0,0
9.24,6.899786,-7.2623835,-1.2489968999999999,1001.9512300000001,5.9663360329342625,1001.9394235417869,0,0
9.26,6.904561999999999,-6.985923,-1.3815604,1001.9486699999999,5.953752734894383,1001.939585874292,0,0
9.28,6.808962299999999,-6.895358,-1.0832933,1001.9281,5.941467637504639,1001.939687962146,0,0
9.3,6.670344,-7.1050863,-0.969668,1001.9381,5.929579005381092,1001.9397724503101,0,0
9.32,6.714129,-7.238569,-0.8749096,1001.9609,5.918328815520653,1001.9399231632308,0,0
9.34,6.7667327,-7.028841000000001,-1.012205,1001.93304,5.907469931248037,1001.9400315537797,0,0
9.36,6.9818497000000015,-7.1241727,-0.89384246,1001.9659,5.8974237905269655,1001.9402204540753,0,0
9.38,7.1682863,-7.167072999999999,-0.52455664,1001.9304,5.888413075492179,1001.940352012742,0,0
9.4,6.9532240000000005,-6.9382779999999995,-0.628711,1001.9253,5.879710964253382,1001.9404140707336,0,0
9.42,6.3175370000000015,-7.1861396,-0.7044590000000001,1001.93036,5.87079593156397,1001.9404327105203,0,0
9.44,5.8778195,-7.5340996,-0.49140853,1001.93036,5.861671139666041,1001.9404129188782,0,0
9.46,5.99256,-7.5388660000000005,-0.57189107,1001.9179,5.8525582027169705,1001.9403143844753,0,0
9.48,6.2554774,-7.6580305,-0.73759264,1001.9204,5.844046130983443,1001.9401556276928,0,0
9.5,6.508832,-7.5198016,-0.9743107,1001.9276,5.836256519199739,1001.93997014994,0,0
9.52,6.604457000000001,-7.352972500000001,-1.2536379,1001.94775,5.8290703107009785,1001.9398342692576,0,0
9.54,6.523225,-7.1480107,-1.3672613,1001.9405,5.822049190237378,1001.9397166017177,0,0
9.56,6.4467745,-7.2862425,-1.0879291000000002,1001.9504,5.8152329928246305,1001.9396510909129,0,0
9.58,6.3177465999999995,-7.3291416,-0.7517838000000001,1001.95526,5.808447724395095,1001.9396493976387,0,0
9.6,6.3560095,-7.548404,-0.6665623,1001.9653300000001,5.8020988229362125,1001.9397403516299,0,0
9.62,6.51855,-7.434007000000001,-0.59080935,1001.94525,5.796188112472088,1001.939840553311,0,0
9.64,6.752786599999999,-7.3339105,-0.5813381,1001.93256,5.790855072337347,1001.9399028815244,0,0
9.66,6.972683,-7.1623144,-0.72336805,1001.9501,5.786126038341268,1001.9399946643599,0,0
9.68,6.9249115,-7.1527824,-1.0216331,1001.9653300000001,5.78191868550006,1001.9401669708819,0,0
9.7,6.8197823,-7.3005460000000015,-0.7943791,1001.93964,5.778216285210105,1001.9403173238296,0,0
9.72,6.6811934000000015,-7.33868,-0.78964245,1001.9674,5.774836023159902,1001.9405476733284,0,0
9.74,6.7576966,-7.190917,-0.8653904,1001.9548300000001,5.771648609258233,1001.9408026265216,0,0
9.76,6.8342,-7.157551299999999,-0.99321705,1001.9723,5.768726689345504,1001.9411412937076,0,0
9.78,6.8055460000000005,-7.2528834,-0.83224493,1001.9195,5.76612175542116,1001.9413626313756,0,0
9.8,6.6335015,-7.348215,-0.69021016,1001.9422599999999,5.7636876199565865,1001.9415614358662,0,0
9.82,6.576873299999999,-7.300567599999999,-0.70434666,1001.93207,5.761263247663102,1001.9417029303453,0,0
9.84,6.385736,-7.3434677,-0.6806696,1001.9423,5.758656702703072,1001.9418301043173,0,0
9.86,6.323653,-7.324403,-0.59544533,1001.9471,5.755772752609626,1001.9419614468635,0,0
9.88,6.4097404000000004,-7.300571400000001,-0.8321609000000001,1001.9546,5.752770103793014,1001.9421229999288,0,0
9.9,6.4575934,-7.3625380000000025,-0.72326463,1001.9446,5.74981728609679,1001.9422746654174,0,0
9.92,6.5054455,-7.343472999999999,-0.903167,1001.9421,5.746985960675818,1001.9424080482477,0,0
9.94,6.6919130000000004,-7.257675999999999,-0.90789646,1001.94965,5.744400121686827,1001.9425519763428,0,0
9.96,6.6489460000000005,-7.2529106,-1.0025799000000002,1001.92175,5.741992070847454,1001.9426042640927,0,0
9.98,6.6681194,-7.271978999999999,-0.95523083,1001.9241300000001,5.739795921960883,1001.9425839581979,0,0
10.0,6.5869174,-7.348244999999999,-0.75164634,1001.9569,5.7377625152960885,1001.9426175536597,0,0
10.02,6.6013117,-7.281514599999999,-0.7989854999999999,1001.9568,5.7358052214200805,1001.9426982954167,0,0
10.04,6.682619,-7.362547,-0.68535507,1001.944,5.7341421606122776,1001.9427743249696,0,0
10.06,6.6683345,-7.395914,-0.9078671999999999,1001.9418,5.732813385688409,1001.9428379971124,0,0
10.08,6.553673299999999,-7.4626474,-0.92206526,1001.9519,5.7317328957365925,1001.9429268810285,0,0
10.1,6.439006,-7.238620299999999,-0.9930770000000001,1001.9314,5.730385694611285,1001.9429639220848,0,0
10.12,6.3769197,-7.190956,-0.98833793,1001.94385,5.728647742431465,1001.9429998414428,0,0
10.14,6.467797,-7.2052574000000025,-0.9267850000000001,1001.93896,5.72670534814211,1001.9430170363581,0,0
10.16,6.5729999999999995,-7.1718926,-0.76581097,1001.9461699999999,5.724655412692512,1001.9430435804545,0,0
10.18,6.69733,-7.2624583,-0.72319627,1001.95154,5.722823694523963,1001.9430976219286,0,0
10.2,6.7117276,-7.252926299999999,-0.7563318,1001.9237,5.721202266364987,1001.9430755415359,0,0
10.22,6.7069990000000015,-7.1766634000000025,-0.8652184000000002,1001.9262,5.719668696551527,1001.9429952793516,0,0
10.24,6.7309556,-7.143298599999999,-0.99304205,1001.9540400000001,5.718226885047429,1001.9429641206798,0,0
10.26,6.6975484,-7.1576,-1.0782566999999998,1001.9437,5.7168642211659035,1001.9429392380431,0,0
10.28,6.6306853000000014,-7.2290997999999975,-1.0451108,1001.92865,5.7155834674107995,1001.942865810488,0,0
10.3,6.621177,-7.2624664,-0.89360523,1001.941,5.714386420645053,1001.9427942129828,0,0
10.32,6.654694,-7.2958339999999975,-0.7278958000000001,1001.9335,5.713337249088245,1001.9426974902603,0,0
10.34,6.7121058000000025,-7.3244348,-0.7610315,1001.9513,5.712551719941413,1001.9426429950979,0,0
10.36,6.659579300000001,-7.27677,-0.7278861,1001.9159,5.711850425696138,1001.9424985683901,0,0
10.38,6.521019,-7.205272999999999,-0.8415068000000001,1001.92847,5.7109421829415385,1001.9423204501047,0,0
10.4,6.5855494000000006,-7.157549,-0.8843349,1001.92334,5.709879290238966,1001.9420947351674,0,0
10.42,6.6094240000000015,-7.2433467,-0.94115,1001.9106,5.708858851420501,1001.9417819124022,0,0
10.44,6.623730999999999,-7.2433457,-0.8606681,1001.9206,5.707884271310847,1001.9414292473224,0,0
10.46,6.6284857000000015,-7.352975999999999,-0.83699846,1001.9231,5.707124198023339,1001.9410516471672,0,0
10.48,6.4994,-7.5436372999999985,-0.80386037,1001.92786,5.706670229664703,1001.9406705097405,0,0
10.5,6.4611325,-7.295775999999999,-0.78492546,1001.9458,5.706046305290087,1001.9403522028753,0,0
10.52,6.618836999999999,-7.109878999999999,-0.86541295,1001.9204,5.7052231169587335,1001.9399991189985,0,0
10.54,6.5901312999999995,-7.181377,-0.9127595,1001.9432400000001,5.704304125852104,1001.9396988012567,0,0
10.56,6.6522417,-7.219508999999999,-0.7470578,1001.95795,5.703419871508014,1001.9394991448157,0,0
10.58,6.728688000000001,-7.219508,-0.7896703,1001.9583,5.702684058423577,1001.9393904114627,0,0
10.6,6.8338160000000014,-7.100343,-0.83228236,1001.9428,5.702059843182495,1001.9393066091907,0,0
10.62,6.910261599999999,-7.09081,-0.865426,1001.9305400000001,5.7016383332614335,1001.9392010017103,0,0
10.64,6.8002972999999995,-7.128941499999999,-0.9175072,1001.9202,5.701306007992656,1001.9390392833343,0,0
10.66,6.709453999999999,-7.162306299999999,-0.9459161,1001.953,5.700980294112095,1001.9389466475577,0,0
10.68,6.613828999999999,-7.238570699999999,-0.9411844000000001,1001.9505,5.700642117941133,1001.938906386654,0,0
10.7,6.585122999999999,-7.243336699999999,-0.84176433,1001.95526,5.700242688762432,1001.9389296851274,0,0
10.72,6.647228999999999,-7.3100679999999985,-0.9743306,1001.9554,5.7000045605081375,1001.9390095647921,0,0
10.74,6.661541499999999,-7.3339,-0.9885361999999999,1001.9454,5.699969117167488,1001.9391031520306,0,0
10.76,6.551577,-7.252867699999999,-1.0264142,1001.95276,5.699844093742741,1001.9392350103673,0,0
10.78,6.5754470000000005,-7.090803999999999,-1.0642921,1001.9301,5.699435027026849,1001.9393186343559,0,0
10.8,6.5945387,-7.1098695,-0.9269966999999999,1001.935,5.69880301025039,1001.9393769774292,0,0
10.82,6.6231884999999995,-7.157534,-0.74235755,1001.9403,5.6980561766081985,1001.9394318522496,0,0
10.84,6.7665534,-7.1146350000000025,-0.7470946999999999,1001.9299,5.697349773646997,1001.9394460249727,0,0
10.86,6.7569669999999995,-7.252864,-0.7186906999999999,1001.9476,5.6968722738779425,1001.9394879023012,0,0
10.88,6.776059,-7.224264,-0.8654596999999999,1001.9399,5.6966067841736425,1001.9395263886604,0,0
10.9,6.7063375,-7.1242149999999995,-1.0120456,1001.9472,5.696308867493318,1001.939588020208,0,0
10.92,6.462616400000001,-7.219547299999999,-1.0262444,1001.9422599999999,5.695790897790035,1001.9396520969708,0,0
10.94,6.4244294,-7.319646400000001,-0.8226600000000001,1001.9346300000001,5.695142847061683,1001.9396906356493,0,0
10.96,6.4579406,-7.391145699999999,-0.82738984,1001.95215,5.694540144838246,1001.9397695421372,0,0
10.98,6.5679244999999975,-7.3768477,-0.9694174999999999,1001.9372599999999,5.694134894986797,1001.9398302295584,0,0
11.0,6.5966554,-7.4245142999999985,-0.83211493,1001.9522,5.693992971077753,1001.9399283841373,0,0
11.02,6.36728,-7.2195535,-0.8368443000000001,1001.9243,5.69345238707982,1001.9399588513401,0,0
11.04,6.104443,-7.3244195,-0.83683956,1001.92426,5.692372074122032,1001.9399292562956,0,0
11.06,6.13795,-7.429284599999999,-0.65692765,1001.93964,5.6910012520635656,1001.939902064792,0,0
11.08,6.486922,-7.362553599999999,-0.6237826999999999,1001.9472,5.689738687675567,1001.9399043109461,0,0
11.1,6.7689850000000025,-7.2719913,-0.7089969,1001.9343,5.688841716037928,1001.9398861201282,0,0
11.12,6.7499213000000005,-7.2147929999999985,-0.8794305,1001.93207,5.688185734549871,1001.9398419086892,0,0
11.14,6.792988,-7.1861954,-0.9315044,1001.9142,5.687772874143379,1001.9397105325903,0,0
11.16,6.826495599999999,-7.090864999999999,-1.4428158000000002,1001.93964,5.687608662152475,1001.9395941947521,0,0
11.18,6.9221435,-7.1957307,-1.2534348,1001.9368,5.687903905755057,1001.9394813395372,0,0
11.2,6.793141,-7.2386312,-0.88888085,1001.9215,5.688403678602918,1001.9393168878466,0,0
11.22,6.8170886,-7.238632000000001,-0.90781397,1001.9467,5.689119873679626,1001.9391981575368,0,0
11.24,6.821923299999999,-7.1814350000000005,-0.8225896,1001.92664,5.68993017443576,1001.9390480380679,0,0
11.26,6.8076360000000005,-7.0956383,-0.62373984,1001.9568,5.690641423699797,1001.9389792995681,0,0
11.28,6.735991499999999,-7.090873200000001,-0.45329654,1001.9188,5.691133346446307,1001.9388459167512,0,0
11.3,6.7360435,-7.1528396999999995,-0.62373036,1001.90356,5.691542632224811,1001.938601030394,0,0
11.32,6.7265289999999975,-7.181439999999999,-0.66160136,1001.9062,5.691912289211667,1001.9382680050992,0,0
11.34,6.7552600000000025,-7.1671414,-0.7846911999999999,1001.8833,5.692283522122566,1001.9377758591304,0,0
11.36,6.7792077000000015,-7.047979,-0.97879726,1001.93896,5.692546450475473,1001.9373452618596,0,0
11.38,6.745801400000001,-7.067046,-1.054543,1001.9188,5.692709702277295,1001.9368980231683,0,0
11.4,6.6873983999999975,-7.1337523,-1.1019827,1001.89594,5.6928123038106575,1001.9363553941772,0,0
11.42,6.7399835999999995,-7.243384,-0.8368554,1001.9386599999999,5.693046848123576,1001.9358842237816,0,0
11.44,6.749550999999999,-7.2100177,-0.78477633,1001.9339,5.693351276792206,1001.9354607544146,0,0
11.46,6.7304397,-7.1289864000000005,-0.82738525,1001.9188,5.6935741734415135,1001.935026598166,0,0
11.48,6.6826487000000006,-7.057488,-0.9078693999999999,1001.8933,5.693563503319035,1001.9344927619513,0,0
11.5,6.692216,-7.081321000000001,-0.81791496,1001.9035,5.693379434927263,1001.933909490329,0,0
11.52,6.7304619999999975,-7.1623529999999995,-0.79424226,1001.91595,5.693215267303064,1001.9333294573584,0,0
11.54,6.7734875999999975,-7.1432867,-0.92680484,1001.9083,5.6931257309340975,1001.9327268341789,0,0
11.56,6.783055,-7.2004850000000005,-0.8699914000000001,1001.91583,5.693191402800091,1001.9321335277343,0,0
11.58,6.735264,-7.1242213,-0.95521,1001.90076,5.693227650927075,1001.9314963374603,0,0
11.6,6.730492,-7.219552,-0.8226459,1001.9359,5.6933500803310455,1001.9309491693193,0,0
11.62,6.7113795,-7.200486,-0.8652549,1001.9155,5.693499904652808,1001.9304100745404,0,0
11.64,6.816542999999999,-7.133754700000001,-0.8841919,1001.9281,5.693725834078956,1001.9299254141253,0,0
11.66,6.8022113,-7.138521000000001,-0.98834807,1001.9257,5.694025316596565,1001.9294819566916,0,0
11.68,6.692283,-7.109922,-0.9599409999999999,1001.9126,5.69418358980043,1001.9290293426593,0,0
11.7,6.5584564,-7.2290864,-0.8131736999999999,1001.9078400000001,5.694182083798975,1001.9285531312663,0,0
11.72,6.582362,-7.224319500000001,-0.79423547,1001.9379,5.694062180322398,1001.9281659996077,0,0
11.74,6.6684065000000015,-7.148055,-0.77056277,1001.9202,5.693838835506218,1001.9277952524749,0,0
11.76,6.7066526,-7.171888,-0.794234,1001.9306,5.693618985277822,1001.9274777573996,0,0
11.78,6.6923210000000015,-7.124223,-0.8557806,1001.9329,5.693321421802659,1001.9272167388243,0,0
11.8,6.7066674,-7.238620299999999,-0.8226391,1001.94525,5.693143892875988,1001.9270510225516,0,0
11.82,6.673216,-7.1623554,-0.86998254,1001.9204,5.692918658931794,1001.9268806519717,0,0
11.84,6.7736,-7.0622582,-0.8889193999999999,1001.94293,5.692647780476228,1001.9267878901803,0,0
11.86,6.6971307,-7.171889,-0.8179026,1001.9304,5.69238077795192,1001.9267189294568,0,0
11.88,6.6206603,-7.271987400000001,-0.8036986999999999,1001.89984,5.6921607936780445,1001.9265612316153,0,0
11.9,6.688275999999999,-7.233872,-0.7894317,1001.91034,5.692017270799058,1001.9263634933686,0,0
11.92,6.850825,-7.0432105,-0.8557100000000001,1001.9201,5.691898429402577,1001.9261662232782,0,0
11.94,6.7552600000000025,-7.0908766000000005,-1.0924276000000002,1001.9149,5.691784389846393,1001.9259513570222,0,0
11.96,6.7457404000000025,-7.171908999999999,-0.9409228999999999,1001.9223599999999,5.691750706221138,1001.9257485723132,0,0
11.98,6.7027550000000025,-7.2815410000000025,-0.7799501,1001.9073,5.691864648966445,1001.925502976884,0,0
12.0,6.850962599999999,-7.181444,-0.7089309,1001.9325,5.692156233215772,1001.9253111580458,0,0
12.02,6.846217599999999,-7.157611999999999,-0.8509598,1001.94525,5.692584383279852,1001.9252134467515,0,0
12.04,6.8127949999999995,-7.181445599999999,-0.86989427,1001.9097,5.69312306829563,1001.9250712606436,0,0
12.06,6.722011999999999,-7.3482759999999985,-0.8604224,1001.91974,5.693880406356814,1001.9249264324603,0,0
12.08,6.693371000000001,-7.0813494000000015,-0.9551069,1001.91455,5.694401330401508,1001.9247611071208,0,0
12.1,6.6838446,-7.0908837,-0.9882447,1001.9119,5.6947191335436775,1001.9245687256649,0,0
12.12,6.6265199999999975,-7.033686,-1.0213827,1001.9499,5.694696070855055,1001.9244899299983,0,0
12.14,6.583537599999999,-7.0956516,-0.86987835,1001.93225,5.694374169124334,1001.9244482423993,0,0
12.16,6.6504902999999995,-7.319681,-0.6142173000000001,1001.9548300000001,5.694185011978681,1001.9245207815641,0,0
12.18,6.8130393,-7.314914999999999,-0.7231054,1001.932,5.69434995996423,1001.9246118023564,0,0
12.2,6.7604947,-7.157619500000001,-0.9692914,1001.965,5.69455867033708,1001.92483762584,0,0
12.22,6.679276,-7.1480875,-1.0687103999999998,1001.937,5.694697310945863,1001.9250809480172,0,0
12.24,6.550255,-7.1814537,-0.9550815999999999,1001.93225,5.694618913573475,1001.92532175608,0,0
12.26,6.669785000000001,-7.2624865000000005,-0.84618706,1001.92944,5.694619034142088,1001.9255493597624,0,0
12.28,6.784536,-7.1147240000000025,-0.8509181999999998,1001.92975,5.694628329428627,1001.9257655926809,0,0
12.3,6.794125999999999,-7.000327599999999,-0.9124626,1001.9068599999999,5.6945002720737135,1001.9258885959542,0,0
12.32,6.7750429999999975,-7.0956592999999994,-0.83197445,1001.9396,5.694351240922747,1001.9260466427013,0,0
12.34,6.689044,-7.138560000000001,-0.7988301999999999,1001.93195,5.694120649031272,1001.9262075448927,0,0
12.36,6.631719599999999,-7.1290270000000024,-0.8414368,1001.8991,5.693730779563638,1001.9262521309078,0,0
12.38,6.66043,-7.067063,-0.80355865,1001.9296,5.693141903998552,1001.9263035794394,0,0
12.4,6.679274,-7.033689999999999,-0.76097417,1001.9571,5.6923487990442005,1001.926459906476,0,0
12.42,6.688858,-7.1766877000000004,-0.7893784,1001.9267,5.691612172248294,1001.926598901382,0,0
12.44,6.6315217,-7.2434195999999975,-0.76097,1001.9272,5.69094440813701,1001.926723881236,0,0
12.46,6.7032413,-7.1051899999999995,-0.77517116,1001.9445,5.690233562573381,1001.9268983074628,0,0
12.48,6.6937050000000005,-7.052758,-1.0118893,1001.92163,5.689439740847813,1001.9270334645696,0,0
12.5,6.5264344,-7.0908914,-0.8414485999999999,1001.9366,5.6883630295586025,1001.927187328917,0,0
12.52,6.5407953,-7.2052894,-0.6710081,1001.9366,5.687207694191037,1001.92735716907,0,0
12.54,6.6507535,-7.1623907,-0.74202204,1001.9313,5.686086364728628,1001.9275214340207,0,0
12.56,6.7176933000000005,-7.162391,-0.5905189999999999,1001.93646,5.685072459828622,1001.9276987573686,0,0
12.58,6.765513,-7.171925,-0.6994083999999999,1001.9543,5.684254282442581,1001.9279512047524,0,0
12.6,6.712958,-7.291089,-0.6662655,1001.90375,5.683713713572186,1001.9280871429236,0,0
12.62,6.626944,-7.2195915999999976,-0.7514826,1001.9060000000001,5.683203295642108,1001.9281277441768,0,0
12.64,6.598289500000001,-7.200525999999999,-0.7893557,1001.9085,5.682658290939328,1001.9280929595654,0,0
12.66,6.6126504,-7.243425999999999,-0.7136033,1001.94135,5.682158321535613,1001.9281099492282,0,0
12.68,6.655689,-7.1862273000000005,-0.7514765999999999,1001.8911,5.681678923291509,1001.927991725477,0,0
12.7,6.6222553,-7.381656599999999,-0.68992704,1001.9364,5.681462807337772,1001.9279175327588,0,0
12.72,6.636616,-7.338758500000001,-0.6567843000000001,1001.9389,5.6814292664596096,1001.9278915129553,0,0
12.74,6.627078,-7.291092999999999,-0.77514243,1001.9259599999999,5.6814884774091965,1001.92786156841,0,0
12.76,6.502826,-7.376892,-0.7372651,1001.9138,5.681584144611825,1001.9277844877632,0,0
12.78,6.4598308,-7.2338960000000005,-0.6331062,1001.9261,5.681415591822492,1001.927710315148,0,0
12.8,6.521991000000001,-7.238662700000001,-0.51947826,1001.94604,5.6810936826547245,1001.9277107630908,0,0
12.82,6.674966,-7.190998,-0.5478828,1001.9264,5.680781905626322,1001.927706440146,0,0
12.84,6.713226,-7.195765,-0.4673959,1001.89325,5.680532917677515,1001.9275785772072,0,0
12.86,6.69413,-7.2291317,-0.56208193,1001.9209599999999,5.680374323979247,1001.9274417706366,0,0
12.88,6.6845927,-7.157634,-0.51000136,1001.94104,5.680168135577975,1001.9273698419763,0,0
12.9,6.6456895000000005,-7.2338824000000015,-0.43431184,1001.93353,5.679974318502152,1001.9273284623814,0,0
12.92,6.7269416,-7.329213,-0.4295778,1001.9309,5.680051621041522,1001.9273047569066,0,0
12.94,6.8177524000000025,-7.295847,-0.33962458,1001.9209,5.680438308456981,1001.927260753624,0,0
12.96,6.7890687000000005,-7.276780599999999,-0.39170355,1001.90295,5.681031338453027,1001.9271343536107,0,0
12.98,6.6934679999999975,-7.2005157,-0.3443599,1001.946,5.681549654022134,1001.9270905828856,0,0
13.0,6.698243,-6.986021000000001,-0.33015716,1001.9382,5.68168188527954,1001.9270919009747,0,0
13.02,6.7364755,-6.9812546000000015,-0.4674554,1001.95575,5.681532136945814,1001.9271962347948,0,0
13.04,6.6982327,-7.157616,-0.24967323,1001.93066,5.681327955649914,1001.9273008937128,0,0
13.06,6.6169705,-7.3387455999999975,-0.13131359,1001.9278,5.681234617002716,1001.9273951671156,0,0
13.08,6.7746997,-7.300613,-0.31122136,1001.9507,5.681410637890267,1001.9275623644927,0,0
13.1,6.9563274,-7.148083,-0.49112916,1001.9053,5.681869289034838,1001.9276299555827,0,0
13.12,6.970661,-7.019386,-0.44852006,1001.9254,5.6824021569491725,1001.9276816512297,0,0
13.14,6.841601400000001,-7.186215,-0.38697326,1001.9282,5.683054845362745,1001.9277291955592,0,0
13.16,6.688642999999999,-7.3292117,-0.2544104,1001.9505,5.6838027951109495,1001.9278531806244,0,0
13.18,6.674298299999999,-6.8573227,-0.26387963,1001.9756,5.683898713382567,1001.9281346223779,0,0
13.2,6.6073759999999995,-6.5665627,-0.16445757,1001.9504400000001,5.682886197998145,1001.9284636036709,0,0
13.22,6.2249870000000005,-7.4579086,0.18588792,1001.93286,5.681727985224443,1001.9287701185683,0,0
13.24,6.1485057,-7.7677345,0.05805854,1001.9201,5.680841317895728,1001.9290097427044,0,0
13.26,6.6694983999999975,-7.23388,0.1953558,1001.93286,5.680061398490813,1001.9292353355175,0,0
13.28,6.855906,-6.9860190000000015,0.07226081,1001.915,5.679268885775177,1001.9293834221193,0,0
13.3,6.722067,-7.1576147,-0.10291262,1001.9328,5.678533298320012,1001.9295265711211,0,0
13.32,6.8033185,-7.138549,-0.112381846,1001.9526,5.677938143606927,1001.9297361219228,0,0
13.34,6.9945059999999994,-6.990784599999999,0.020180998000000002,1001.93756,5.677525826637509,1001.9299494469724,0,0
13.36,7.1952524,-7.0193844,0.0012429766,1001.9349,5.6776151736589275,1001.9301557629767,0,0
13.38,7.496375,-7.014618,-0.13605528,1001.9529,5.678595046832825,1001.930419943052,0,0
13.4,7.5541024000000006,-6.895463,-0.036598872000000005,1001.9248699999999,5.680276544218785,1001.9306333927713,0,0
13.42,7.362920299999999,-7.0813584,0.11016856,1001.9501300000001,5.682547254739332,1001.9308921847293,0,0
13.44,7.0665816999999995,-7.109958,0.1906543,1001.9476300000001,5.6849355230961285,1001.9311811094383,0,0
13.46,6.746346000000001,-7.3006205999999985,0.33742186,1001.93756,5.687252734512764,1001.9314593673172,0,0
13.48,6.478687,-7.4340844,0.42264205,1001.93,5.6893405985051295,1001.9316999822568,0,0
13.5,6.464357,-7.472217,0.42264295,1001.9549,5.691258575877467,1001.9319961096812,0,0
13.52,6.081982,-8.139536,0.23800199,1001.9526,5.693589459819509,1001.9323319418784,0,0
13.54,6.4404783,-6.9383630000000025,0.29955027,1001.92706,5.694838366185187,1001.9326097042173,0,0
13.56,7.61632,-6.4807744000000005,-0.05079473,1001.9474,5.696226270631969,1001.9329083800847,0,0
13.58,6.913697999999999,-7.0908940000000005,-0.53370315,1001.93964,5.697560186572906,1001.9331965239128,0,0
13.6,6.5695630000000005,-7.391186999999999,-0.34906042,1001.9296,5.6987939495588735,1001.9334381803133,0,0
13.62,6.4213996,-7.4388533,0.29008517,1001.9372599999999,5.6998024811651264,1001.9336654664596,0,0
13.64,6.3544917000000005,-7.195759,0.18592909,1001.93427,5.700131136971249,1001.9338684728192,0,0
13.66,6.191987999999999,-7.238658,0.0012882128,1001.9295699999999,5.699699852750517,1001.9340323747364,0,0
13.68,6.8563914000000015,-6.952665,-0.008179661,1001.93445,5.699095436090995,1001.9341787019213,0,0
13.7,7.3057027,-6.857334,0.119650185,1001.9368,5.698871870652722,1001.934317433295,0,0
13.72,7.530366000000001,-6.7810692999999995,-0.07919371,1001.92206,5.6992212697708275,1001.9343958895768,0,0
13.74,7.4777966000000005,-6.7429369999999995,-0.06972416,1001.95984,5.699941315161452,1001.9345568123452,0,0
13.76,7.147999,-7.062297,0.32323232,1001.9368,5.700953725644752,1001.9347070791788,0,0
13.78,7.186248,-7.0813630000000005,0.43685898,1001.92944,5.702314093916281,1001.9348208934678,0,0
13.8,7.3344315999999985,-6.8764014000000016,0.30429658,1001.91425,5.703893773187037,1001.9348474045572,0,0
13.82,7.105011,-6.833503,0.5268145000000001,1001.94434,5.705274031526949,1001.9349050030992,0,0
13.84,6.775217,-6.9622,0.25695455,1001.93427,5.706153370496893,1001.9349536111599,0,0
13.86,6.7800063999999995,-6.7715383000000005,0.24748668,1001.9367,5.706311469557222,1001.9350028482422,0,0
13.88,6.6987576,-7.0718309999999995,0.28062817,1001.962,5.706162820043382,1001.9351435438743,0,0
13.9,6.9279485,-6.9907937,-0.04606775,1001.9318,5.7059460095330365,1001.935255825777,0,0
13.92,6.8849297000000025,-7.229122,-0.07920858,1001.9039,5.705963185286193,1001.9352421570932,0,0
13.94,6.770214,-7.3292193,-0.16916227,1001.9291400000001,5.706178005041809,1001.9352081116788,0,0
13.96,6.6889577000000005,-7.3387527000000015,-0.24964716,1001.9443,5.706470647291828,1001.9352107599486,0,0
13.98,6.64116,-7.219588799999999,-0.1170838,1001.9594,5.706576171610999,1001.9353001812241,0,0
14.0,6.703297,-7.0479927,0.09596439999999999,1001.9212,5.706343256730123,1001.9353284332104,0,0
14.02,6.6459399999999995,-7.1862226,-0.04606775,1001.9442,5.705939388819767,1001.935385334306,0,0
14.04,7.090461299999999,-6.847797,-0.32539759999999995,1001.9186,5.7055403860716245,1001.9353751849108,0,0
14.06,7.4489465,-6.752466,-0.48636734,1001.9442,5.70556913292211,1001.9353979862393,0,0
14.08,7.085682,-7.286320699999999,-0.1975687,1001.9212,5.706182977703695,1001.9353670207428,0,0
14.1,6.7988935,-7.4912825,-0.12655263,1001.9287,5.707211579075638,1001.9353156583554,0,0
14.12,6.536004,-7.4150176,0.21905893,1001.94147,5.708123923307239,1001.9352924301801,0,0
14.14,6.3830504,-7.3482857,0.12437084,1001.9819,5.708613134498836,1001.9354396930153,0,0
14.16,6.7415357,-7.0813584,0.14804286,1001.949,5.7088182841698805,1001.9356186315616,0,0
14.18,6.9470673,-6.957428,0.39423192,1001.9741,5.7088995864781245,1001.9359152745875,0,0
14.2,6.9231679999999995,-6.9049960000000015,0.3658255,1001.9312,5.7087567904016625,1001.936160413377,0,0
14.22,7.013984,-6.7905983999999995,0.44631037,1001.9589,5.708391450380745,1001.9364588805232,0,0
14.24,7.162158,-7.0384600000000015,0.22852772,1001.9287,5.708395183496807,1001.9366946741237,0,0
14.26,7.190837400000001,-7.2386546,0.30427822,1001.9613,5.7090647394290945,1001.936991600522,0,0
14.28,7.033104,-7.405483999999999,0.14804286,1001.9337,5.710333316167202,1001.9372421149257,0,0
14.3,6.755875,-7.4293175000000025,-0.16916227,1001.9562400000001,5.711771363114412,1001.937531861839,0,0
14.32,6.497766,-7.4865155,-0.6283995,1001.9992,5.713124921365052,1001.9380098875093,0,0
14.34,6.4595275,-7.567547999999999,-0.77043164,1001.9309699999999,5.714495304451063,1001.9384069273963,0,0
14.36,6.3734910000000005,-7.6152130000000025,-0.69941556,1001.9889,5.715825072225987,1001.9389395269015,0,0
14.38,6.14406,-7.6056795,-0.64733714,1001.96625,5.716789338198406,1001.939508449528,0,0
14.4,6.40337,-7.176719,-0.90761954,1001.9562400000001,5.717140642458961,1001.9400713831419,0,0
14.42,6.546809,-6.947925,-0.90288097,1001.9814,5.716799780502647,1001.9407175743044,0,0
14.44,6.6281137,-7.0194254,-0.7324379,1001.9663,5.716041728127153,1001.9413806455478,0,0
14.46,6.699859,-7.42935,-0.38682207,1001.9435,5.715602970772076,1001.9419741649747,0,0
14.48,6.6329904000000015,-7.62478,-0.07908136,1001.95575,5.715644950638782,1001.942548191746,0,0
14.5,6.6378026,-7.620014,0.115032285,1001.9382300000001,5.716111372007163,1001.9430398563112,0,0
14.52,6.570942999999999,-7.4245872,-0.16429237,1001.9562400000001,5.71655570053209,1001.943521811638,0,0
14.54,6.2889800000000005,-7.334024,-0.29685152,1001.91815,5.716458654654082,1001.9438563288433,0,0
14.56,6.1456370000000025,-7.4484214999999985,-0.3678629000000001,1001.9458,5.7158788535740985,1001.9441589054616,0,0
14.58,6.341657,-7.4245906,-0.3631241,1001.9454300000001,5.715098080985488,1001.944430838102,0,0
14.6,6.5520167,-7.1481314,-0.66138715,1001.9636,5.714034739132905,1001.9447401267661,0,0
14.62,6.5377225999999995,-7.1290664999999995,-0.86022806,1001.95074,5.7127087805785335,1001.9450350137732,0,0
14.64,6.518654,-7.1862664,-0.7560665,1001.97845,5.711198469531585,1001.9454158698829,0,0
14.66,6.418323,-7.248233,-0.95017296,1001.93567,5.709522976220925,1001.9457173092101,0,0
14.68,6.5426470000000005,-7.3006660000000005,-1.0685287,1001.93335,5.707984815038978,1001.9459391386864,0,0
14.7,6.7482240000000004,-7.1815032999999975,-1.0495868999999998,1001.9634,5.70667513306641,1001.9461980063122,0,0
14.72,6.7243699999999995,-7.129072,-1.016442,1001.943,5.705452138199451,1001.9464152289238,0,0
14.74,6.624042,-7.1195397,-0.6897635,1001.948,5.7040946337250125,1001.9466128719992,0,0
14.76,6.5906315000000015,-7.1386075,-0.41516367,1001.9577,5.702572673768271,1001.9468274230817,0,0
14.78,6.5906796000000005,-7.1958075,-0.36781523,1001.9504400000001,5.70099443553223,1001.9470300056946,0,0
14.8,6.6050676999999975,-7.2863729999999975,-0.2825915,1001.9454,5.699525465998826,1001.947203139671,0,0
14.82,6.5812135,-7.210108999999999,-0.41988509999999996,1001.9555,5.698018037627508,1001.9473859895501,0,0
14.84,6.753337400000001,-7.229177,-0.59978783,1001.9527,5.696772876602093,1001.9475666861405,0,0
14.86,6.657787,-7.329275599999999,-0.6707998000000001,1001.9803,5.695791817700652,1001.9478441895776,0,0
14.88,6.710413000000001,-7.3149770000000025,-0.6376545,1001.9779699999999,5.695094797720205,1001.9481978445323,0,0
14.9,6.794859,-7.1767077000000015,-0.8271763000000001,1001.95514,5.6945899846336285,1001.94853532581,0,0
14.92,6.756601299999999,-7.0432434000000015,-0.9313349,1001.93256,5.694021477360491,1001.9487760130941,0,0
14.94,6.5845118000000005,-7.1290417,-0.879258,1001.98035,5.693273893514163,1001.9491023507311,0,0
14.96,6.5749345,-7.3530693,-0.67094576,1001.9425699999999,5.692666738485155,1001.9493671862044,0,0
14.98,6.546238,-7.5103649999999975,-0.5667905,1001.9477,5.692377578985345,1001.9495951929583,0,0
15.0,6.608359,-7.4483995,-0.7609026,1001.9401,5.692385845544503,1001.9497624770315,0,0
15.02,6.589221,-7.3387685,-0.8413892,1001.96765,5.692474520650476,1001.9499746843213,0,0
15.04,6.617883999999999,-7.395966499999999,-0.8082498,1001.9604,5.692756049869822,1001.950199721819,0,0
15.06,6.665664,-7.3578334000000005,-0.6804225,1001.9599599999999,5.693194630178312,1001.9504337019533,0,0
15.08,6.6847672000000005,-7.491297,-0.5857359000000001,1001.9576400000001,5.693990307382388,1001.950666389473,0,0
15.1,6.952417,-7.214836,-0.68042576,1001.9851,5.695068064245032,1001.9509959531633,0,0
15.12,7.1005745,-7.2005360000000005,-0.6851616999999999,1001.9802,5.696585080282706,1001.9513922902088,1,2
15.14,7.052757700000001,-7.2625009999999985,-0.8461332,1001.96277,5.69853248233002,1001.9517834533772,1,2
15.16,7.052741,-6.814444,-0.87454104,1001.93964,5.700202901355964,1001.9520853687208,1,2
15.18,6.670339,-6.647614,-0.8082611,1001.9699,5.700803455776071,1001.9524162737907,1,2
15.2,6.4934697,-6.7906103,-0.81773144,1001.93207,5.700413449770334,1001.9526354149252,1,2
15.22,6.3835163,-6.962206,-0.8556083000000001,1001.9468400000001,5.699260286982343,1001.9528081845376,1,2
15.24,6.708525999999999,-6.9622054,-0.47685742,1001.9753,5.697843691209052,1001.9530418143029,1,2
15.26,7.2964234,-7.319697,-0.7467202,1001.9396,5.697616993696223,1001.953199859032,1,2
15.28,7.4015613,-8.306374,0.04392373,1001.98755,5.7000295666111525,1001.953463167862,1,2
15.3,7.3011675,-8.835461,0.11020374,1001.9621599999999,5.705465174662312,1001.95372713614,1,2
15.32,6.0679625999999995,-9.941302,-0.42005098,1001.9473,5.713951713260361,1001.9539372408203,1,2
15.34,6.039265,-10.556188,-2.7162387000000003,1001.9422599999999,5.726780500076148,1001.9540808512489,1,2
15.36,6.2400002,-9.9985,-4.4774394,1001.9468400000001,5.743704298542073,1001.9541816783592,1,2
15.38,6.4263945,-8.487501,-3.6489198,1001.91705,5.761371675927019,1001.9541370951516,1,2
15.4,4.276346,-7.6724415,-3.8003416,1001.9548300000001,5.7761337191339885,1001.9541001958867,1,2
15.42,3.5163752999999995,-6.8001614,-2.256924,1001.9544,5.784972153635563,1001.9540686709912,1,2
15.44,5.002911,-4.907839,-1.9586552,1001.9518400000001,5.7870805128051135,1001.9540327923779,1,2
15.46,5.442671,-5.027003,-1.1490704,1001.9292,5.783693408115913,1001.9539116919826,1,2
15.48,5.136781,-5.0603690000000014,-0.6424873999999999,1001.91675,5.7749257507824145,1001.9536709055824,1,2
15.5,4.7830935,-6.4951034000000005,1.1187127000000001,1001.9368,5.763314770754656,1001.9533974114587,1,2
15.52,5.533539,-6.075647,0.32333425,1001.94934,5.7494011326398375,1001.9531411453701,1,2
15.54,5.7104096,-7.0003595,0.40382078,1001.9167,5.7352048391978965,1001.9527835205307,1,2
15.56,7.1109095,-6.685767,-0.618809,1001.93427,5.722341503038847,1001.9524008745487,1,2
15.58,7.976072,-7.233921499999999,-0.79871476,1001.9366,5.71281714318239,1001.9520058854108,1,2
15.6,9.792415,-7.820208,0.6736866,1001.95935,5.7099198296296345,1001.9516833118207,1,2
15.62,13.209991,-3.9974296000000002,-2.2900492999999997,1001.9367,5.715882280402659,1001.9513443458743,1,2
15.64,10.007541999999999,-5.193836,-1.6177622,1001.93427,5.7242482803955035,1001.9509833679188,1,2
15.66,9.921522,-5.212903,1.7531356,1001.98193,5.734611071802622,1001.9507758156727,1,2
15.68,11.479755,-4.216693,1.9709198,1001.9667,5.7488699397631935,1001.9506497495717,1,2
15.7,11.494113,-7.1862582999999995,-0.2968582,1001.9694,5.7689548875982855,1001.9506058584664,1,2
15.72,12.134623,-8.573327,-1.1159089,1001.9387,5.796901820280794,1001.9505242151953,1,2
15.74,12.163321,-9.574304,-0.2400422,1001.9237,5.8329042045712445,1001.9503555080263,1,2
15.76,11.1309,-10.441818,-0.5572457,1001.9516,5.8754600548513665,1001.9502109185428,1,2
15.78,10.10326,-11.428495,-0.7797611999999999,1001.95386,5.923657114000468,1001.9500962959684,1,2
15.8,8.043182,-11.557194,-1.0117456,1001.941,5.974260168402005,1001.949962268796,1,2
15.82,5.763232,-10.475184,-1.1585103,1001.9739400000001,6.022432018913838,1001.9499301622193,1,2
15.84,4.5491805,-9.483742,-1.4804482,1001.936,6.065393445313326,1001.9498516442636,1,2
15.86,4.0473175,-8.964188,-1.343149,1001.9585599999999,6.1021512259086315,1001.9498136158787,1,2
15.88,3.4785378,-9.436076,-1.3999603,1001.94855,6.133766932384067,1001.9497754649808,1,2
15.9,1.1271746999999999,-12.229286,-1.8307636999999999,1001.94604,6.165428905125211,1001.9497283071734,1,2
15.92,0.5345082,-11.886095,-1.3147109,1001.9388,6.196090144774658,1001.9496472966288,1,2
15.94,3.3737411,-9.459919000000001,0.36127109999999996,1001.97644,6.2217650464039185,1001.9496721694438,1,2
15.96,4.4826846,-10.537162,-0.8459995000000001,1001.94855,6.2459184342146825,1001.9496901072532,1,2
15.98,2.9149363,-14.417139,-3.4215128,1001.9208,6.2761630909153565,1001.9496019527156,1,2
16.0,7.1164125999999985,-17.057812,0.7779066,1001.9664300000001,6.318742780006758,1001.9495846403363,1,2
16.02,12.895225,-13.444763,2.9888763,1001.9659,6.372834043344886,1001.9496280784126,1,2
16.04,13.091227,-9.888912,2.7142837,1001.9585599999999,6.432250514690483,1001.9496986152147,1,2
16.06,10.954680999999999,-9.207295,1.8810307000000002,1001.941,6.491593673630825,1001.949729626518,1,2
16.08,10.930814,-7.7201304,1.2134825,1001.9711,6.548588038872877,1001.9498339614504,1,2
16.099999999999998,10.285564,-6.3902617,1.0099055000000001,1001.97864,6.600628840280423,1001.9500298535353,1,2
16.12,9.530386,-5.298721,2.0230707999999997,1001.9486699999999,6.645900843165657,1001.9501980483091,1,2
16.14,8.985516,-5.4083524,1.4691478999999998,1001.9583,6.683988850315481,1001.9503758322368,1,2
16.16,10.328671,-4.841132599999999,0.24767429,1001.94354,6.717295496444866,1001.9505083131197,1,2
16.18,12.092447,-4.397844,-0.59504706,1001.93353,6.7493158205361174,1001.9505642513003,1,2
16.2,13.292209,-4.9030995000000015,-0.34885535,1001.94824,6.78276734100192,1001.9506053109723,1,2
16.22,12.971988,-5.4893866,0.16719723,1001.943,6.817185700509879,1001.9506142121786,1,2
16.24,10.730291000000001,-7.0242186,-0.18788026,1001.9634,6.849714868033982,1001.9506681061207,1,2
16.259999999999998,9.296378,-9.569561,-0.52402043,1001.9634,6.88155010928778,1001.950761561626,1,2
16.28,8.603332,-12.467628,-0.5713621999999999,1001.98615,6.916412869009463,1001.9509715372889,1,2
16.3,9.798314,-14.960537,0.47020966,1001.98615,6.959501813390293,1001.95128371425,1,2
16.32,10.171167,-12.872786999999999,1.4975781000000001,1001.96826,7.006762279946457,1001.9516206684416,1,2
16.34,9.721893,-10.422778,2.487071,1001.9858,7.053369319439357,1001.9520414467587,1,2
16.36,8.546091,-9.8460245,2.463402,1001.9861,7.096736847682188,1001.9525358572718,1,2
16.38,6.117979,-10.394179,0.9247231,1001.9783,7.134650110760545,1001.9530654693148,1,2
16.4,5.0329932999999984,-9.574332,0.15775213,1001.9506,7.164949803213557,1001.9535245588264,1,2
16.419999999999998,4.5072412,-9.159642999999999,0.34239644,1001.94775,7.1871587747377665,1001.9539094219067,1,2
16.44,3.4079182,-8.98328,0.5743851,1001.9686,7.2009143092225445,1001.9543023730063,1,2
16.46,2.7339911,-8.287364,0.7164195,1001.9352,7.205344510772003,1001.9545808160544,1,2
16.48,2.7961577999999996,-7.4627504,1.2324723,1001.9127,7.200080767995262,1001.9546760773944,1,2
16.5,3.6741443,-7.9107695000000025,0.5931906,1001.9301,7.187680400443652,1001.9546717764357,1,2
16.52,4.9359894,-10.3893795,-0.5620062,1001.9405,7.174783414290255,1001.9546169577134,1,2
16.54,5.1080403,-9.760193,-0.9881045,1001.9326,7.1605467773140505,1001.9544892588423,1,2
16.56,6.8574266,-7.2529835999999985,-2.5078506000000003,1001.9431,7.1435802431706055,1001.9543354227884,1,2
16.58,8.038016,-8.273026,-4.406349,1001.8801,7.128536179341452,1001.9539322457288,1,2
16.599999999999998,8.64025,-10.422742999999999,-4.420554,1001.9454,7.119181534043905,1001.9535452823944,1,2
16.62,8.898337,-9.974686,-4.0512724,1001.92505,7.1143173601484415,1001.9531007785754,1,2
16.64,8.81228,-10.289278,-3.1280653,1001.9401,7.11330593998063,1001.9526612121982,1,2
16.66,8.071387,-9.984217999999998,-2.1811867,1001.96545,7.113871422229477,1001.9523188509834,1,2
16.68,7.9518685,-9.102405000000001,-3.1186006,1001.92755,7.114705438767264,1001.9519271727504,1,2
16.7,9.366671,-8.816410000000003,-4.179109599999999,1001.9653,7.117940846936765,1001.9516292280417,1,2
16.72,12.067236999999999,-7.472241,-4.927147,1001.9451,7.126402472566763,1001.9513424588763,1,2
16.74,14.524035000000001,-5.155694,-2.5078685000000003,1001.9652,7.140678615417178,1001.95113895679,1,2
16.759999999999998,14.151188000000001,-3.444499,0.20494318,1001.9677,7.1578610309398405,1001.9510187621021,1,2
16.78,10.824424,-5.556083,0.0013618693,1001.9374,7.17256394687461,1001.9508635305318,1,2
16.8,8.965056,-8.130024,-0.33478296,1001.9577,7.184898324683776,1001.9507509792066,1,2
16.82,8.611331,-9.088101,0.38011026,1001.9825400000001,7.195965519259845,1001.9507659693306,1,2
16.84,9.084508999999999,-10.251141,2.3022766,1001.9853,7.208707535493803,1001.9509035371144,1,2
16.86,8.754682,-12.14823,4.016129,1002.0179,7.2262381002135125,1001.9512662792747,1,2
16.88,6.2835,-12.415155,4.721553299999999,1001.9875,7.246254405262742,1001.9517172396422,1,2
16.9,4.228161,-10.451334,4.830443,1001.9752,7.26334752544942,1001.9522002461599,1,2
16.919999999999998,5.093284,-9.478955000000001,4.0397954,1001.9599599999999,7.276192789410616,1001.9526549658333,1,2
16.94,5.145841000000001,-10.060475,3.0266306,1001.9728,7.285663306546718,1001.9531292782593,1,2
16.96,4.772993,-9.698216,2.823049,1001.96246,7.291022970972047,1001.9535819713175,1,2
16.98,5.3226510000000005,-9.254926,2.3922164,1001.9499,7.292251670490283,1001.9539687158067,1,2
17.0,6.6717796,-9.178691,1.0572263000000002,1001.9577,7.2907722894568385,1001.9543238758605,1,2
17.02,9.587489999999999,-8.825967,1.7105768,1001.9878,7.290535958298193,1001.9547582093311,1,2
17.04,14.754484,-7.3483350000000005,4.68852,1001.9526400000001,7.299699687726133,1001.9551343608321,1,2
17.06,18.850803,-5.012723,5.5738564,1001.98,7.3236828438631285,1001.9555562445993,1,2
17.08,10.323661999999999,-9.874611,4.4754767,1001.9802,7.349624699613599,1001.9560177386153,1,2
17.099999999999998,5.519986,-10.08434,1.0856453000000001,1001.9574,7.370089125016426,1001.9564304908687,1,2
17.12,5.1615269999999995,-8.830736,0.6926923,1001.9727,7.382947509519211,1001.9568537689933,1,2
17.14,6.045819,-7.729662400000001,0.029878147,1001.9323,7.388127090360308,1001.9571393839752,1,2
17.16,6.2083582999999996,-7.877426,-0.23051171,1001.96246,7.386958632077234,1001.9574109075912,1,2
17.18,7.102208,-7.8726606,0.34235364,1001.9702,7.381382198124349,1001.9576968665907,1,2
17.2,7.6232357,-7.36264,-0.55244607,1001.9476300000001,7.371939770646963,1001.9579132992433,1,2
17.22,6.8154755000000025,-7.291142,0.110372916,1001.9499,7.357802918909723,1001.9580756912576,1,2
17.24,5.3289857000000005,-7.567603599999999,1.8526365000000002,1001.9649,7.338442567634301,1001.9582437483529,1,2
17.259999999999998,3.598725,-7.5914364,1.3460578,1001.9373,7.3126017122471865,1001.9583168461082,1,2
17.28,2.8339827,-8.682979,0.5459458,1001.9173,7.28246141350253,1001.9582337746389,1,2
17.3,2.7814329,-8.897474,-1.4803768,1001.915,7.249230980123737,1001.9580047310997,1,2
17.32,3.9381716,-8.816443,-3.3031201,1001.9273,7.2149827895053384,1001.9576918111967,1,2
17.34,5.764086,-8.010896,-4.766049,1001.9198,7.181526396438433,1001.9572789046499,1,2
17.36,7.7620683,-7.996597299999999,-5.0974544999999996,1001.9398,7.151581887462212,1001.9568511363685,1,2
17.38,8.416932000000001,-12.234067,-2.7965312,1001.96234,7.1307845322536325,1001.9564929202243,1,2
17.4,10.58699,-13.540104000000001,-1.6081931999999999,1001.9649,7.122617268758912,1001.9562066659264,1,2
17.419999999999998,13.034278,-10.251180999999999,-1.731285,1001.9775400000001,7.124412655265447,1001.9560305316313,1,2
17.44,14.606860000000001,-5.8754826,-1.0447940999999998,1001.9523300000001,7.1331469723155125,1001.9558615774542,1,2
17.46,12.661508,-4.393084,-1.6792016,1001.9700300000001,7.143258568794052,1001.9557632958647,1,2
17.48,8.866371000000003,-5.689587599999999,-2.8438627999999997,1001.9700300000001,7.1491575872032325,1001.955727814387,1,2
17.5,7.9670053,-6.2758555,-3.3552480000000005,1001.9523300000001,7.150836289863621,1001.9556842308217,1,2
17.52,9.004221000000003,-6.0184617,-2.7729168,1001.9422599999999,7.14981326741894,1001.9555973931521,1,2
17.54,10.318662,-6.733445,-1.5561752,1001.9727,7.1489827541921995,1001.955582232772,1,2
17.56,10.901795,-6.2234235,-0.36310542,1001.9774,7.148614600628173,1001.955647381022,1,2
17.58,10.691479,-6.514183,0.839433,1001.9752,7.148634372485844,1001.9557753354443,1,2
17.599999999999994,9.37225,-8.749698,0.4275395,1001.9724,7.149580997470497,1001.9559482447643,1,2
17.62,8.406725999999999,-9.946102999999999,0.51275843,1001.9647,7.151767672175231,1001.9561325337579,1,2
17.64,8.239429,-9.855539,0.4086012,1001.9724,7.154666876995552,1001.9563539343916,1,2
17.66,4.176591,-12.419948,1.0619486999999999,1002.0024,7.158796007746989,1001.9567153298274,1,2
17.68,2.823903,-11.890858999999999,1.5637952,1001.9697,7.162282012615219,1001.9570814036473,1,2
17.7,3.8324385000000003,-10.6658535,2.1887364,1001.9827,7.1635695022050125,1001.9574970934214,1,2
17.72,4.1670203,-9.679176,1.7389674,1001.9622,7.161117419668955,1001.9578813273693,1,2
17.74,4.716694,-8.549502,0.37072423,1001.9522,7.153480036477253,1001.9582003837073,1,2
17.759999999999994,4.4968195,-8.416038499999999,-0.35364002,1001.9419,7.140825551299115,1001.958423620506,1,2
17.78,4.276944599999998,-8.244442,-0.31103075,1001.9473,7.123252210656407,1001.9585808275076,0,0
17.8,5.4145346,-7.5866570000000015,-0.041170005,1001.93225,7.1014534987953475,1001.9586249446353,0,0
17.82,6.2653360000000005,-7.076636,-0.03170154,1001.94965,7.076271868241122,1001.9586316167283,0,0
17.84,6.719413,-6.256787999999999,0.37545690000000004,1001.92706,7.047645909116754,1001.9585238543698,0,0
17.86,7.025317,-6.1662230000000005,0.19081479999999998,1001.9522,7.016413128894246,1001.958405869674,0,0
17.88,7.125689,-7.543758,0.50328517,1001.9423,6.985150458552281,1001.9582436372659,0,0
17.9,7.4172535,-8.1872425,-0.5051434,1001.9473,6.95536594737708,1001.958060891616,0,0
17.919999999999995,6.929710000000001,-7.429360400000001,-0.6045661999999999,1001.93964,6.925162600043961,1001.95783310235,0,0
17.94,7.737492599999999,-5.7848983,-1.2058360000000001,1001.94714,6.89378003918978,1001.957593332586,0,0
17.96,8.119873,-6.099491,-2.7729242000000003,1001.94965,6.863113500042192,1001.9573528760252,0,0
17.98,8.468796000000001,-8.287339999999999,-4.4394355,1001.9094,6.837608981960293,1001.9569677782544,0,0
18.0,8.115181,-8.535204,-4.6856160000000004,1001.94965,6.816802720045532,1001.9566011618623,0,0
18.02,7.3599710000000025,-6.8526089999999975,-3.4262639999999998,1001.94965,6.795959125600076,1001.9562521954356,0,0
18.04,7.125761,-5.9850955,-2.0154113999999996,1001.9948,6.7728664216363565,1001.9560826207976,0,0
18.06,7.3743105,-6.137625,-1.2105628000000002,1001.9471,6.748178908389522,1001.9559004472123,0,0
18.08,7.469907000000001,-6.9193406,-0.32996348,1001.9748,6.723245950208818,1001.9558075170224,0,0
18.1,7.116201400000001,-7.357864,0.70213675,1001.972,6.698336905585777,1001.9557836968454,0,0
18.12,6.7816152999999995,-7.3626304000000005,1.1566395,1001.97705,6.673156934233634,1001.9558392080282,0,0
18.14,6.074204,-7.491328,0.9057162,1001.9367699999999,6.647018415856477,1001.9558196085603,0,0
18.16,5.591444,-7.853585199999999,0.23343068,1001.9473,6.620036840938363,1001.95577161988,0,0
18.18,5.3715730000000015,-7.7439550000000015,-1.0779995,1001.9471,6.592080126703446,1001.9556979992503,0,0
18.2,5.5293064,-7.8202205000000005,-1.9491299,1001.9749,6.563960655702295,1001.9557020752648,0,0
18.22,6.107663,-7.715356,-2.0958965,1001.9647,6.536395359024419,1001.9557380693599,0,0
18.24,6.2414974999999995,-7.5532928,-2.162178,1001.9373,6.509363163538409,1001.955703496693,0,0
18.26,6.265396599999999,-7.419828999999999,-2.0390835,1001.93976,6.482668480040267,1001.9556155516963,0,0
18.28,6.4374695,-7.343564,-1.7408161,1001.9519,6.456361049228993,1001.9555244675107,0,0
18.3,6.6382210000000015,-7.329264599999999,-1.3478605,1001.9621,6.430615988371309,1001.955467657442,0,0
18.32,6.7194777000000006,-7.171968,-0.8838888,1001.9316,6.4052268812689785,1001.955331536498,0,0
18.34,6.7481565,-7.176735000000001,-0.5146053,1001.9722,6.38023718552618,1001.9552719865005,0,0
18.36,6.7003584,-7.200567200000001,-0.40097952,1001.9522,6.355647744971416,1001.9552083089716,0,0
18.38,6.647781,-7.2387,-0.19740015,1001.9649,6.331471648920458,1001.9551869335944,0,0
18.4,6.65256,-7.2625327,-0.23527537,1001.9416,6.307792757812859,1001.9551191333504,0,0
18.42,6.810293700000001,-7.3054320000000015,-0.55248046,1001.9416,6.284952326260606,1001.9550105561748,0,0
18.44,6.8341928,-7.2101007,-0.7702631,1001.94934,6.26285486904676,1001.9548942033799,0,0
18.46,6.891551,-7.2339334000000015,-0.84127915,1001.962,6.241622999981278,1001.9548169749183,0,0
18.48,6.375332,-7.462728,-1.4094077,1001.96185,6.221002334165888,1001.95477405474,0,0
18.5,6.3043275,-7.5151777000000015,-1.4850948999999998,1001.9393,6.201006895526095,1001.9546804238732,0,0
18.52,6.328254,-7.543778,-1.2247,1001.9775,6.181638753528942,1001.9546798421136,0,0
18.54,6.294824,-7.548545,-1.0163836,1001.9719,6.162808879934587,1001.9547413206391,0,0
18.56,6.4191246,-7.572378,-1.0211158,1001.9695,6.144726518619537,1001.9548487743097,0,0
18.58,6.337894,-7.6629434000000005,-0.88855,1001.9568,6.127379165076983,1001.9549507447856,0,0
18.6,6.3235845999999984,-7.534247,-0.75598395,1001.9446,6.110497116087513,1001.955003583217,0,0
18.62,6.3761887999999995,-7.376950999999999,-0.6991685999999999,1001.9669,6.093900728677127,1001.9550930983554,0,0
18.64,6.4096737,-7.367419,-0.7228383,1001.9241300000001,6.077650621360978,1001.9550607267777,0,0
18.66,6.524418,-7.305453999999999,-0.6849603,1001.9467,6.061820267884936,1001.9550020246351,0,0
18.68,6.5340037,-7.510416999999999,-0.58080095,1001.94916,6.046736022349203,1001.9549291241333,0,0
18.7,6.610507000000001,-7.453219,-0.6376115,1001.9342,6.032388144427133,1001.9547900844028,0,0
18.72,6.739591000000001,-7.2720904000000015,-0.8743289000000001,1001.9568,6.018681480617953,1001.9546744645932,0,0
18.74,6.605785000000001,-7.267325,-1.0921092,1001.9392,6.005441233233509,1001.9545165948567,0,0
18.76,6.462416999999999,-7.376956,-1.002153,1001.9667400000001,5.99261271143417,1001.9544211054164,0,0
18.78,6.428986,-7.515187299999999,-0.84591514,1001.93146,5.980334827135429,1001.9542540709673,0,0
18.8,6.371656400000001,-7.5723863,-0.78909963,1001.96185,5.968591480856918,1001.9541338246727,0,0
18.82,6.3238845,-7.4675226,-0.7512220000000001,1001.9618,5.957126691773944,1001.9540551732778,0,0
18.84,6.2856736,-7.4913564,-0.8790484000000001,1001.9392,5.945958106189461,1001.9539321982814,0,0
18.86,6.223564,-7.5247226,-0.80329525,1001.9468,5.935048715175391,1001.9537978616607,0,0
18.88,6.233152,-7.5342565000000015,-0.8979809999999999,1001.9518,5.924452554636482,1001.953671969521,0,0
18.9,6.151923,-7.5151910000000015,-0.89797837,1001.9392,5.914034011628369,1001.9535086321358,0,0
18.92,6.108933,-7.4675259999999986,-0.77961564,1001.9339,5.903655922173676,1001.9532937161467,0,0
18.94,6.137638,-7.3721957,-0.6754564000000001,1001.9693599999999,5.893220097041469,1001.9531616550003,0,0
18.96,6.2715,-7.5247259999999985,-0.618641,1001.9543,5.883183684577657,1001.9530490638136,0,0
18.98,6.333664,-7.4913607,-0.59496653,1001.9491,5.873563183329541,1001.9529353616111,0,0
19.0,6.4476213,-7.400778,-0.5950359000000001,1001.9317,5.864356193183437,1001.9527584470436,0,0
19.02,6.5766716,-7.305446000000001,-0.6139739000000001,1001.9417,5.855579587494214,1001.952562314922,0,0
19.04,6.5910077000000005,-7.372178599999999,-0.86016333,1001.9418,5.84737579881371,1001.9523502682457,0,0
19.06,6.547986,-7.4484425000000005,-0.92644525,1001.9516,5.839779113779997,1001.9521602028368,0,0
19.08,6.4906244000000015,-7.496108500000001,-0.98325855,1001.9717,5.832753821068532,1001.9520626043113,0,0
19.1,6.4858413,-7.4198429999999975,-1.0542749,1001.9367,5.8261483819082045,1001.9519210608787,0,0
19.12,6.3759017,-7.5294743,-0.97379035,1001.9643,5.819944170304095,1001.9518405572826,0,0
19.14,6.3089805,-7.515175,-0.8933058,1001.9565,5.813989139679985,1001.9517861982988,0,0
19.16,6.2277203000000005,-7.639104400000001,-0.74180514,1001.9618,5.808340131218118,1001.9517742163865,0,0
19.18,6.227717,-7.591439,-0.58557016,1001.9642,5.802883483913739,1001.9518083619901,0,0
19.2,6.3376484,-7.5151744,-0.7228683000000001,1001.93646,5.797659602965612,1001.951783278942,0,0
19.22,6.3806634,-7.348345,-0.62344617,1001.95905,5.792441168955697,1001.9517872757567,0,0
19.24,6.3615394,-7.429375999999999,-0.68499374,1001.9618,5.7873562585816805,1001.9518268531496,0,0
19.26,6.3328576,-7.548539599999999,-0.60450923,1001.97144,5.782546745660572,1001.9519324310623,0,0
19.28,6.4236699999999995,-7.486574000000001,-0.6423847,1001.9561,5.778026714715416,1001.9520407229544,0,0
19.3,6.552721,-7.4293755999999975,-0.67552596,1001.9565,5.773869488668881,1001.9521524630676,0,0
19.32,6.538378,-7.3960094,-0.72760475,1001.96155,5.7699839265477815,1001.9522850277644,0,0
19.34,6.557492999999999,-7.4198422000000015,-0.80335546,1001.954,5.766427785472147,1001.9524083358307,0,0
19.36,6.4093155999999984,-7.486573700000001,-0.7607461999999999,1001.94147,5.763071355326844,1001.952477912829,0,0
19.38,6.390193,-7.5151734,-0.789153,1001.9386599999999,5.759927462730325,1001.9524896465787,0,0
19.4,6.36151,-7.5151734,-0.77968454,1001.9110000000001,5.756942678299576,1001.952350651792,0,0
19.42,6.3041477,-7.5151734,-0.77968496,1001.97186,5.7540326404505,1001.952298069652,0,0
19.44,6.3280435,-7.620037,-0.68026274,1001.98413,5.7513824723743525,1001.9523662030223,0,0
19.46,6.218105,-7.586671000000001,-0.4198708,1001.95154,5.748742726767838,1001.9524234313376,0,0
19.48,6.155963,-7.5962043,-0.51455927,1001.95154,5.746064909770883,1001.952470817924,0,0
19.5,6.2138824,-7.5056534,-0.60446155,1001.95154,5.743304585271338,1001.9525093377673,0,0
19.52,6.366853,-7.448455,-0.82224256,1001.9511,5.740627647579286,1001.952538300285,0,0
19.54,6.4720306,-7.4627550000000005,-0.85538137,1001.9664300000001,5.7382044417778735,1001.9526139016846,0,0
19.56,6.4481497,-7.338825,-0.7038789000000001,1001.95386,5.735763268556084,1001.952685189035,0,0
19.58,6.5581039999999975,-7.272094,-0.71334594,1001.9461699999999,5.733364657402581,1001.9527247238574,0,0
19.6,6.2904544,-7.6105199999999975,-0.47188956,1001.95905,5.731150643434143,1001.9527824278206,0,0
19.62,6.290472,-7.5771539999999975,-0.67073286,1001.95105,5.729078322566289,1001.9528271783023,0,0
19.64,6.242693,-7.7678175000000005,-0.6849344,1001.95654,5.72738420322567,1001.9528800859861,0,0
19.66,6.524719999999999,-7.5914550000000025,-0.7228079000000001,1001.9486699999999,5.726128473833548,1001.9529116789058,0,0
19.68,6.586877,-7.438925699999999,-0.8127598,1001.9641,5.72512546215692,1001.9529798723655,0,0
19.7,6.476959,-7.3626614,-0.7654141999999999,1001.9536,5.724072358729264,1001.9530423605664,0,0
19.72,6.405281,-7.348362400000001,-0.7228028000000001,1001.9739400000001,5.722851905945624,1001.9531728066423,0,0
19.74,6.2141085,-7.5294919999999985,-0.71333224,1001.9586,5.721516528136244,1001.9533076066913,0,0
19.76,6.238025,-7.624823599999999,-0.5523608,1001.9536,5.720247124584517,1001.9534277686304,0,0
19.78,6.3432010000000005,-7.5866914,-0.46713966,1001.94104,5.71910959549011,1001.9534893477527,0,0
19.8,6.319319999999999,-7.5533256999999985,-0.7275303000000001,1001.9436599999999,5.718040504379895,1001.9535083734132,0,0
19.82,6.295439,-7.624825,-0.6659814000000001,1001.93335,5.717109080731852,1001.9534526143424,0,0
19.84,6.2763395,-7.539027000000001,-0.8174805,1001.94855,5.716164144976283,1001.953385696216,0,0
19.86,6.3719550000000025,-7.524728,-0.87429154,1001.9483,5.71532543429592,1001.9533082588533,0,0
19.88,6.328954,-7.6105266,-0.7180546,1001.9712,5.7146364110785175,1001.9533042454674,0,0
19.9,6.3528724,-7.5866940000000005,-0.7748658,1001.9257,5.714084849838443,1001.953201323956,0,0
19.92,6.391127,-7.825022,-0.8411459000000001,1001.9559300000001,5.714098832708943,1001.9531202057424,0,0
19.94,6.5871205,-7.9394206999999986,-0.71331507,1001.95325,5.715033505105785,1001.9530489969483,0,0
19.96,6.6205979999999975,-7.2864027,-0.9831744000000001,1001.9559300000001,5.715849488521519,1001.9529964484683,0,0
19.98,6.7305517,-6.809747,-1.4471444,1001.9281599999999,5.716119891903503,1001.9528606054172,0,0
20.0,6.6348186,-6.967039999999999,-1.4045473,1001.9787,5.715989289379972,1001.9528335963181,0,0
20.02,6.4436364,-7.3102326,-0.6659792,1001.9384,5.715597633648032,1001.9527577701308,0,0
20.04,6.457987999999999,-7.605759,-0.08364631,1001.9405,5.715414266599379,1001.9526466421396,0,0
20.06,6.3146105000000015,-7.4579964000000025,-0.3819123,1001.9555,5.715003406824943,1001.9525587215346,0,0
20.08,6.30506,-7.4484634000000005,-0.6138973000000001,1001.9486699999999,5.714389653793516,1001.9524670354906,0,0
20.1,6.2381544,-7.605760000000001,-0.7180531,1001.96075,5.7137752926364245,1001.9524158403744,0,0
20.12,6.1521306,-7.5866941999999975,-0.78906804,1001.96625,5.713030631484929,1001.9524204073443,0,0
20.14,6.1234645999999975,-7.5199630000000015,-1.1678194,1001.93085,5.712107787926531,1001.9523467892524,0,0
20.16,6.027881,-7.5819287,-1.2767093999999999,1001.938,5.7110351346585535,1001.9522300918652,0,0
20.18,6.11393,-7.615294500000001,-0.8032676999999999,1001.9354,5.7098942056208415,1001.9520663897232,0,0
20.2,6.1617403,-7.52473,-0.7843291,1001.93036,5.708610508862258,1001.9518435995076,0,0
20.22,6.467661,-7.362667599999999,-0.9784383,1001.9306,5.707395371197026,1001.9515702651146,0,0
20.24,6.611067,-7.2149043000000015,-0.84113955,1001.9357,5.706189366022887,1001.9512716138906,0,0
20.26,6.630199,-7.262571,-0.66596544,1001.9405,5.705067533909731,1001.9509689478592,0,0
20.28,6.5632944,-7.396034200000001,-0.580745,1001.9432400000001,5.7041258667848185,1001.9506736879414,0,0
20.3,6.55375,-7.372202400000001,-0.8979488000000001,1001.9382300000001,5.703345933532956,1001.9503679990016,0,0
20.32,6.462946400000001,-7.4627666,-0.9594949,1001.9680000000001,5.702740640519996,1001.9501613674578,0,0
20.34,6.510757,-7.2816386,-1.021041,1001.93567,5.7020887883099975,1001.9499266189027,0,0
20.36,6.5012099999999995,-7.443701299999999,-1.1488688,1001.9329,5.701665124324558,1001.9496578992515,0,0
20.38,6.5251207,-7.3579035,-1.1867428999999998,1001.9457,5.701353539156772,1001.9494062101306,0,0
20.4,6.5729320000000016,-7.305471400000001,-1.0399752,1001.9681,5.7010928032634345,1001.9492511152667,0,0
20.42,6.424771,-7.5438004,-0.9121450000000001,1001.9580699999999,5.701020852685354,1001.9491458214302,0,0
20.44,6.353082,-7.629598,-0.9689571,1001.948,5.701167361797414,1001.9490486588389,0,0
20.46,6.5108314000000025,-7.4341693,-0.9074085,1001.9331699999999,5.701398781040371,1001.9489056428017,0,0
20.48,6.563421000000001,-7.3674383,-0.9405482,1001.9681,5.701679359004081,1001.9488483735167,0,0
20.5,6.5060763,-7.405571000000001,-0.92634374,1001.9432,5.701980055412117,1001.9487774362323,0,0
20.52,6.4009337,-7.3912716,-0.8884673000000001,1001.9580699999999,5.702124856902146,1001.948748209277,0,0
20.54,6.4487414,-7.3817387000000005,-0.86952895,1001.95575,5.702177929421833,1001.948747590786,0,0
20.56,6.4822144999999995,-7.3388399999999985,-0.7795738,1001.9281,5.702113079923126,1001.9486727129606,0,0
20.58,6.5061255,-7.362673299999999,-0.7890416,1001.9504400000001,5.702015642222871,1001.9486129131475,0,0
20.6,6.434442,-7.305474799999999,-0.8505876,1001.9506,5.701713385013957,1001.948567227545,0,0
20.62,6.4392343,-7.3912735000000005,-1.0257595,1001.9455,5.7014060977875145,1001.9485158177276,0,0
20.64,6.386669,-7.4580054,-0.8979294,1001.948,5.7011029378043405,1001.9484685350693,0,0
20.66,6.4010205000000004,-7.2959429999999985,-0.87425613,1001.9306,5.700566032756479,1001.948362429386,0,0
20.68,6.448828,-7.281643400000001,-0.9500058000000001,1001.9606,5.699882458714213,1001.9483127296584,0,0
20.7,6.3102293,-7.3912745,-0.8789883,1001.93286,5.699040922799224,1001.9482131851524,0,0
20.72,6.243324299999999,-7.4151077,-0.79376787,1001.9401,5.697995682616898,1001.9480960201602,0,0
20.74,6.2528944000000015,-7.519972,-0.642266,1001.9451,5.696930486562255,1001.9479817075003,0,0
20.76,6.3867407,-7.4198747,-0.7322185,1001.9431,5.695885390965108,1001.9478631266874,0,0
20.78,6.5110282999999995,-7.3007107000000016,-0.9642033000000001,1001.9278,5.694887463252235,1001.9476861214247,0,0
20.8,6.5206027,-7.291177999999999,-1.0730933,1001.95294,5.693956732604662,1001.9475486335381,0,0
20.82,6.4859047,-7.4198445999999985,-0.87436163,1001.9378,5.6931997916020185,1001.9473920541603,0,0
20.84,6.5145674000000025,-7.3817119999999985,-0.9974576999999999,1001.9328,5.692603192383637,1001.947201169227,0,0
20.86,6.586245,-7.338812400000001,-0.99272496,1001.95795,5.692181702397972,1001.9470711990907,0,0
20.88,6.5814476,-7.2244142999999985,-0.95011705,1001.96545,5.691725571407972,1001.9470225211618,0,0
20.9,6.5718710000000025,-7.3531113,-0.79388314,1001.9454,5.691396273325383,1001.9469736682673,0,0
20.92,6.495375599999999,-7.343577400000001,-0.6944623999999999,1001.9579,5.691044527646018,1001.9469698366445,0,0
20.94,6.5479355,-7.281612400000001,-0.72760487,1001.9429,5.690655853358472,1001.94695179961,0,0
20.96,6.519239,-7.3721766,-0.77968496,1001.9298,5.6903447305478645,1001.946874115608,0,0
20.98,6.371048,-7.405542,-0.7654834,1001.96796,5.6899511944099235,1001.9468813832076,0,0
21.0,6.361473999999999,-7.5437717000000015,-0.67553097,1001.9374,5.6896778360329705,1001.9468536718792,0,0
21.02,6.380572,-7.5056386,-0.65186083,1001.95746,5.689473586085459,1001.9468673689306,0,0
21.04,6.3662148,-7.453206,-0.90752035,1001.9399,5.689271188603748,1001.9468543891173,0,0
21.06,6.313619,-7.3769407000000005,-0.9643348,1001.95245,5.688891788392688,1001.946863064353,0,0
21.08,6.3183823,-7.5151705999999985,-0.81756985,1001.9248,5.688554197768207,1001.9467913027597,0,0
21.1,6.437858,-7.4865704,-0.8081028,1001.9349,5.688368329466207,1001.9466850855259,0,0
21.12,6.490418,-7.453203999999999,-0.84124523,1001.9324,5.688341900666944,1001.9465398056703,0,0
21.14,6.4856215,-7.376939,-0.7323554,1001.9424,5.688312973805416,1001.9463965330896,0,0
21.16,6.442585,-7.462736599999999,-0.7797012,1001.9374,5.6883649590873775,1001.946237549918,0,0
21.18,6.428227400000001,-7.5008683000000005,-0.52404493,1001.9499,5.688493765429182,1001.9461102572079,0,0
21.2,6.519028,-7.42937,-0.67554736,1001.9449,5.6887204167675565,1001.9459934244433,0,0
21.22,6.5190077,-7.3721710000000025,-0.7986437,1001.9474,5.688962786904353,1001.9458952546845,0,0
21.24,6.4425135000000004,-7.353103999999999,-0.81758296,1001.94464,5.689087065621081,1001.9458039929688,0,0
21.26,6.3708,-7.4818006,-0.8743973,1001.9449,5.689221317750461,1001.945720099742,0,0
21.28,6.3946853,-7.4722667000000005,-0.8743985000000001,1001.94965,5.689380992639721,1001.9456601193277,0,0
21.3,6.528497,-7.415067999999999,-0.82232213,1001.94495,5.689645472047267,1001.9456045642039,0,0
21.32,6.4680333,-7.438942,-0.7322152,1001.9298,5.689941632359238,1001.9454985792656,0,0
21.34,6.4011674,-7.553339999999999,-0.8174299,1001.9622,5.690368187545529,1001.9454650560887,0,0
21.36,6.46813,-7.5199757,-0.85056657,1001.9497,5.690951698961715,1001.945450680808,0,0
21.38,6.597233,-7.396046000000001,-0.9831254999999999,1001.9422599999999,5.6916802825309025,1001.9454264923586,0,0
21.4,6.6737576,-7.167253,-1.0399339,1001.94714,5.6923034232419685,1001.9454112880724,0,0
21.42,6.7263839999999995,-7.114822,-1.2056339,1001.9547,5.692865783101327,1001.945431292928,0,0
21.44,6.8315850000000005,-7.210153599999999,-1.1488167999999999,1001.9296,5.693650550253088,1001.945391976564,0,0
21.46,6.7981744000000015,-7.191089,-0.91682637,1001.94214,5.694502956655773,1001.9453455295088,0,0
21.48,6.4731927,-7.3388534,-0.784259,1001.94476,5.695160455292922,1001.9453023809848,0,0
21.5,6.1912327000000005,-7.353153999999999,-0.6516911999999999,1001.9472,5.695263920979041,1001.9452710863776,0,0
21.52,6.2151830000000015,-7.200626,-0.48598242,1001.94464,5.6946484320305935,1001.9452411625516,0,0
21.54,6.4924535999999975,-6.9622990000000025,-0.4244313,1001.99554,5.693409927403728,1001.9453957976737,0,0
21.56,6.602436999999999,-7.0766973,-0.32026997,1001.98004,5.691946538614057,1001.9456571523959,0,0
21.58,6.631161,-7.2768936,-0.33920345,1001.94965,5.690637224060639,1001.94590245968,0,0
21.6,6.7029095000000005,-7.2053967000000005,-0.6895446999999999,1001.94965,5.689498456893327,1001.9461327043413,0,0
21.62,6.5547843,-7.181564999999999,-0.6706026999999999,1001.9469,5.688267289796491,1001.9463389107883,0,0
21.64,6.4257746,-7.1482,-0.793693,1001.9545,5.68674748326226,1001.9465504947259,0,0
21.66,6.6695895000000025,-6.962305499999999,-0.74634486,1001.93964,5.685031573329059,1001.9467125725122,0,0
21.68,6.8273740000000025,-7.1625023,-0.9451851000000001,1001.9419,5.6837096279947765,1001.9468384591831,0,0
21.7,6.5358543,-7.4246645000000004,-0.6516476999999999,1001.94714,5.682683997564782,1001.9469507781926,0,0
21.72,6.4403067000000025,-7.548596000000001,-0.4338607,1001.94965,5.681963620191,1001.9470597404677,0,0
21.74,6.483366999999999,-7.3817673,-0.5238105,1001.94434,5.68132126302213,1001.9471462284683,0,0
21.76,6.6937265,-7.0957747000000015,-0.6326974,1001.9723,5.680618478882072,1001.9473132028436,0,0
21.78,6.9327683,-7.0528774000000025,-0.3959725,1001.94965,5.680119117338316,1001.9474691538707,0,0
21.8,6.778958,-7.2578187000000005,-0.15933068,1001.92944,5.679873874403367,1001.9475420472447,0,0
21.82,6.8697843999999995,-7.2578187000000005,-0.026766363999999997,1001.9546,5.679980788081522,1001.9476318644599,0,0
21.84,7.084886599999999,-7.052857,-0.16879752,1001.9421,5.680408495993928,1001.9476913122393,0,0
21.86,7.304769,-7.176788,-0.026764337000000003,1001.95966,5.681621307134543,1001.9477869275728,0,0
21.88,7.0801300000000005,-7.2625856,-0.05516964,1001.95734,5.6833205286002215,1001.9479058043423,0,0
21.9,7.142278699999999,-7.0433245,-0.33923292,1001.97705,5.685222926757909,1001.9481157629602,0,0
21.92,7.1327300000000005,-6.8812622999999995,-0.48599845,1001.95734,5.687061428730695,1001.9483344896485,0,0
21.94,7.1088414,-6.857429499999999,-0.44812223,1001.93427,5.6887630934447335,1001.9484771243872,0,0
21.96,6.9797993,-7.076691,-0.12618163,1001.962,5.690448029933957,1001.9486518387946,0,0
21.98,6.822076299999999,-7.219688400000001,0.082133174,1001.9546,5.69209729977571,1001.9488276298255,0,0
22.0,6.348887,-7.400817999999999,0.16261908,1001.97455,5.693332772657104,1001.9490755593127,0,0
22.02,6.286760299999999,-7.4866157000000015,-0.031490523,1001.93427,5.6942478540830015,1001.9492413297943,0,0
22.04,6.439725,-7.3769855,0.020588918,1001.9594,5.694910174585641,1001.9494243758045,0,0
22.06,6.4301767,-7.243522599999999,-0.33449036,1001.94934,5.695137397297287,1001.9495858115062,0,0
22.08,6.4684269999999975,-7.3054875999999975,-0.3297549,1001.94434,5.695128038768883,1001.9497095711708,0,0
22.1,6.2246675000000025,-7.653446700000001,-0.14984652,1001.96686,5.695124060762924,1001.9498806667543,0,0
22.12,6.544926,-7.262589,-0.35342485,1001.9518,5.694951584625446,1001.9500387564116,0,0
22.14,6.774367999999999,-7.0385613,-0.7747859,1001.9388,5.694665608432438,1001.9501379849097,0,0
22.16,6.8173976,-7.162491999999999,-0.47651732,1001.9794300000001,5.69448839079112,1001.9503311144647,0,0
22.18,6.697914,-7.281656699999999,-0.27767122,1001.9641,5.6944033335036695,1001.9505513317276,0,0
22.2,6.7600617,-7.2530575,-0.18771662,1001.9594,5.694439754334612,1001.9507777709067,0,0
22.22,6.7027160000000015,-7.315022999999999,0.001660645,1001.9388,5.6945933826163175,1001.9509347325903,0,0
22.24,6.5067554,-7.2768907999999985,-0.07882322,1001.9666,5.694518589544119,1001.9511298188967,0,0
22.26,6.5354447,-7.2482915,-0.0693534,1001.97687,5.694237692633169,1001.9513948618088,0,0
22.28,6.4876575,-7.310257400000001,-0.022008367,1001.9694,5.693805004580108,1001.9516938722234,0,0
22.3,6.387294,-7.4580207,-0.026741687000000004,1001.95886,5.693334190883192,1001.9519838758857,0,0
22.32,6.5968065000000005,-7.3722034,-0.20672223,1001.9441,5.69298843762026,1001.9522117411689,0,0
22.34,6.940933,-7.1624737000000005,-0.34875605,1001.94135,5.692931088341067,1001.9523739806647,0,0
22.36,7.060409,-7.0957417000000005,-0.41977388,1001.9338,5.693209421035637,1001.9524504691527,0,0
22.38,6.6732225000000005,-7.315003,-0.53813607,1001.9713,5.693570208821512,1001.9525859126917,0,0
22.4,6.6158456999999995,-7.3436017000000025,-0.4339809,1001.94885,5.6939559161827065,1001.952692141317,0,0
22.42,6.75444,-7.3769674,-0.3677011,1001.9664,5.694601514224875,1001.9528353532216,0,0
22.44,6.5536675,-7.362667,-0.06943548,1001.9462,5.695159189117375,1001.952938007989,0,0
22.46,6.309878299999999,-7.529496000000001,-0.10731247,1001.9183,5.695569068201187,1001.9529040169127,0,0
22.48,6.577527000000001,-7.3436,-0.18306479,1001.9387,5.695921471031106,1001.9528228479367,0,0
22.5,6.7400217000000024,-7.1910696,-0.11678485599999999,1001.9563,5.696214142672672,1001.9527636447772,0,0
22.52,6.630068,-7.1481699999999995,-0.0031607896000000004,1001.9714,5.696230480419106,1001.952778423744,0,0
22.54,6.6443850000000015,-7.3626647,-0.18307026,1001.9689300000001,5.696355122150232,1001.9528496281135,0,0
22.56,6.314559,-7.4532289999999985,-0.0031646191999999997,1001.95135,5.6962618971284105,1001.9529071456333,0,0
22.58,6.0803285,-7.7678213000000005,-0.34404358,1001.94135,5.696188538967862,1001.9529163623897,0,0
22.6,6.668224,-7.276864999999999,-0.80801713,1001.9462,5.696200592960706,1001.9529003274106,0,0
22.62,7.294359,-6.676278599999999,-0.6139083000000001,1001.9438,5.696297137037178,1001.9528533977243,0,0
22.64,7.021889,-6.847873700000001,-0.4055964,1001.9438,5.69627910600603,1001.9527793384219,0,0
22.66,6.620367,-7.0909679999999975,0.044170257000000004,1001.9739400000001,5.695920108416371,1001.9527900780043,0,0
22.68,6.2523007,-7.720152400000001,0.23354447,1001.954,5.695751523390428,1001.9528039232182,0,0
22.7,6.2714,-7.4865910000000016,0.09151061,1001.9586,5.6953975021948295,1001.9528370227257,0,0
22.72,6.1901236,-7.5866880000000005,0.0488991,1001.92365,5.694932973917734,1001.9527611961688,0,0
22.74,6.127967,-7.810716,-0.09786919,1001.94885,5.694656101469045,1001.9526801155168,0,0
22.76,6.6393857,-7.357892,-0.61865556,1001.9389,5.6945495876147865,1001.9525588642367,0,0
22.78,6.9357147,-7.367425,-1.1678483,1001.941,5.695125517725285,1001.9524101146943,0,0
22.8,6.5198503,-7.5199547,-0.85537946,1001.9385,5.695894715510121,1001.9522286031861,0,0
22.82,6.3393635999999995,-7.458017,-0.43391260000000004,1001.97144,5.696433602678879,1001.9521373806456,0,0
22.84,6.482783,-7.3626869999999975,-0.6895680999999999,1001.9563,5.6968425662672475,1001.9520717618387,0,0
22.86,6.846073,-7.195858,-0.5806744,1001.96106,5.697374284747911,1001.9520461387184,0,0
22.88,6.936915400000001,-7.1338935,-0.38182718,1001.94855,5.698030592122321,1001.9520109120296,0,0
22.9,6.917819500000001,-7.257825,-0.19718325,1001.951,5.698941474108563,1001.9519761464444,0,0
22.92,6.827027,-7.319790400000001,-0.059883315,1001.9563,5.700034611988688,1001.9519609934457,0,0
22.94,6.6741004,-7.305491,-0.3155387,1001.93835,5.7010575023702765,1001.95189860468,0,0
22.96,6.5307283,-7.267359700000001,-0.33920866,1001.9509,5.701757599155604,1001.9518398829897,0,0
22.98,6.3347815999999995,-7.3579244999999975,-0.4007536,1001.9433,5.702047247786669,1001.9517572529254,0,0
23.0,6.267892,-7.5152216,-0.55225205,1001.9484,5.702147910655322,1001.9516721548899,0,0
23.02,6.3300524000000005,-7.5152220000000005,-0.36287373,1001.97845,5.7021457759261525,1001.9516933625084,0,0
23.04,6.5356092000000015,-7.2673619999999985,-0.41021544,1001.94073,5.70194867835026,1001.9516726334548,0,0
23.06,6.549974400000001,-7.2959619999999985,-0.50490123,1001.9635599999999,5.701653311130339,1001.9516971117827,0,0
23.08,6.449624,-7.3722270000000005,-0.49069571,1001.9735,5.7012509959588895,1001.9517972312308,0,0
23.1,6.358833,-7.4151273,-0.5380374,1001.9659,5.700704724752303,1001.9519364667427,0,0
23.12,6.468792,-7.4294270000000004,-0.78895867,1001.95844,5.70023992510754,1001.9520829079609,0,0
23.14,6.5309534000000005,-7.481859700000001,-0.82683176,1001.9257,5.700021688224878,1001.9521173249524,0,0
23.16,6.435383,-7.558126,-0.5617026999999999,1001.9459,5.6999740442474485,1001.9521253534365,0,0
23.18,6.3684907,-7.4389625,-0.46701235,1001.9530599999999,5.6997887960712825,1001.9521358121324,0,0
23.2,6.1486454,-7.6439247,-0.5285573,1001.9482,5.699525075971719,1001.9521308845124,0,0
23.22,6.1916885000000015,-7.4866285,-0.504883,1001.94824,5.69899383593082,1001.9521125232833,0,0
23.24,6.3446684,-7.4389644,-0.5569590999999999,1001.961,5.698362461201255,1001.9521282942177,0,0
23.26,6.3446937000000005,-7.5819616,-0.49067510000000003,1001.9356,5.6978643021755735,1001.9520827275556,0,0
23.28,6.3686147,-7.458031,-0.30129686,1001.9433,5.697305349694755,1001.952010847034,0,0
23.3,6.4642377,-7.3913,-0.63270277,1001.9583,5.6967524130249725,1001.9519699743556,0,0
23.32,6.3017497,-7.343635000000001,-0.8173421999999999,1001.9458,5.695940058064046,1001.9519116473494,0,0
23.34,6.3304519999999975,-7.458033,-0.547479,1001.96326,5.695081192955816,1001.9519009636763,0,0
23.36,6.5025505999999975,-7.500933,-0.46225736,1001.9507,5.6944754386410725,1001.9518872001137,0,0
23.38,6.478676999999999,-7.386536599999999,-0.4669894,1001.9530599999999,5.69388439112962,1001.9518792607091,0,0
23.4,6.334560400000001,-7.4151177,-0.44338354,1001.9632,5.6931552190358925,1001.9519130001128,0,0
23.42,6.2915425,-7.581947299999999,-0.46232107,1001.9454,5.692515888316821,1001.9519193654493,0,0
23.44,6.4110374000000006,-7.572414,-0.65169734,1001.9659,5.692124506879169,1001.9519753201449,0,0
23.46,6.626128,-7.357918700000001,-0.8363391,1001.9454,5.691940704217299,1001.9520010905617,0,0
23.48,6.5639910000000015,-7.3531523000000005,-0.8363391,1001.9505,5.6918477214027865,1001.952018457376,0,0
23.5,6.4444957,-7.6486793,-0.7842607,1001.9808300000001,5.692126844719647,1001.9521375242464,0,0
23.52,6.516193,-7.5199820000000015,-0.7984638000000001,1001.9328,5.692629864291611,1001.9521731166458,0,0
23.54,6.7217245,-7.2435217000000005,-0.82213587,1001.96826,5.6931907830496105,1001.9522624788699,0,0
23.56,6.678706,-7.5199820000000015,-0.82213587,1001.9605,5.6941649692004646,1001.9523710944072,0,0
23.58,6.5305324,-7.510449,-0.75111973,1001.9355,5.695271730762488,1001.952406331156,0,0
23.6,6.630908,-7.2673545,-0.71797895,1001.9631,5.696248666093321,1001.9524759635553,0,0
23.62,6.4349365,-7.1195910000000024,-0.75585425,1001.9476300000001,5.696613565619741,1001.9525200452744,0,0
23.64,6.286762,-7.2673545,-0.60435325,1001.95276,5.696440109006928,1001.9525598597183,0,0
23.66,6.296322,-7.5914803,-0.73218215,1001.93256,5.696335451825732,1001.9525230402662,0,0
23.68,6.4444957,-7.424651,-0.8836831,1001.95795,5.696252786005533,1001.9525100436532,0,0
23.7,6.325001,-7.6439122999999976,-0.37710187,1001.9527,5.696309454768267,1001.9524992436889,0,0
23.72,6.0477724,-7.7201770000000005,-0.3913051,1001.9656,5.696252439509407,1001.952536863563,0,0
23.74,6.10035,-7.4818497000000015,-0.5759469,1001.95526,5.6957958987756365,1001.952579907775,0,0
23.76,6.176826999999999,-7.396051400000001,-0.81740147,1001.94775,5.69498785766122,1001.9526005539727,0,0
23.78,6.2580839999999975,-7.4866157000000015,-0.5712124,1001.9454,5.694087669608691,1001.9525928749588,0,0
23.8,6.4636154,-7.543814699999999,-0.41971149999999996,1001.96783,5.693459724237026,1001.952640943432,0,0
23.82,6.454056,-7.4532504,-0.59015006,1001.93304,5.6929372629472335,1001.9526128533388,0,0
23.84,6.3441199999999975,-7.4580164,-0.7369166,1001.97784,5.692389466376699,1001.9526788506604,0,0
23.86,6.3058819999999995,-7.581947299999999,-0.788995,1001.94775,5.691975165028928,1001.9527194220314,0,0
23.88,6.458835,-7.5342816999999975,-0.8079327,1001.9753400000001,5.69181246804353,1001.9528367049754,0,0
23.9,6.531095,-7.5104628,-0.8741628,1001.9353,5.691944746368353,1001.9528772040468,0,0
23.92,6.4546394,-7.5295296,-0.87889534,1001.94775,5.6922644838770005,1001.9528945310917,0,0
23.94,6.354286,-7.6772933000000005,-0.74159545,1001.9554,5.692825712785051,1001.9529188609567,0,0
23.96,6.483361,-7.5533633,-0.7226561,1001.97296,5.693571430005808,1001.9530125069259,0,0
23.98,6.4451465999999975,-7.481865400000001,-0.65637213,1001.96277,5.694303852990124,1001.9531303794797,0,0
24.0,6.3591332000000005,-7.2912035,-0.7226518,1001.99054,5.694616075679432,1001.9533692063015,0,0
24.02,6.249219,-7.4628,-0.760525,1001.96783,5.694684241149952,1001.9536322925387,0,0
24.04,6.2110004,-7.64393,-0.5427405,1001.9504,5.694745786316331,1001.9538531192853,0,0
24.06,6.387879,-7.386537,-0.52853495,1001.9471,5.694626099128295,1001.9540239305687,0,0
24.08,6.378342,-7.3674706999999975,-0.66109616,1001.9429,5.694320616926514,1001.9541348132686,0,0
24.1,6.335344,-7.42467,-0.6042814999999999,1001.96014,5.693876262148121,1001.9542544078946,0,0
